"STUDY","PATNUM","FOLDER","FOLDERL","IT.AETERM","AEOUTCOME","AELLT","AELLTCD","AEDECOD","AEPTCD","AEHLT","AEHLTCD","AEHLGT","AEHLGTCD","AEBODSYS","AEBDSYCD","AESOC","AESOCCD","IT.AESEV","IT.AESER","IT.AEREL","IT.AEACN","AESCAN","AESCNO","AEDIS","IT.AESDTH","IT.AESHOSP","IT.AESLIFE","AESOD","AEDTCOL","IT.AESTDAT","IT.AEENDAT"
"CDISCPILOT01","701-1015","AE","Adverse Events","Application Site Erythema","Not Recovered/not Resolved","APPLICATION SITE REDNESS",10003058,"APPLICATION SITE ERYTHEMA",NA,"HLT_0617",NA,"HLGT_0152",NA,"GENERAL DISORDERS AND ADMINISTRATION SITE CONDITIONS",NA,"GENERAL DISORDERS AND ADMINISTRATION SITE CONDITIONS",10018065,"Mild Adverse Event","No","Probably Related",NA,"No","No","No","No","No","No","No","01/16/2014","01/03/2014",NA
"CDISCPILOT01","701-1015","AE","Adverse Events","Application Site Pruritus","Not Recovered/not Resolved","APPLICATION SITE ITCHING",10003047,"APPLICATION SITE PRURITUS",NA,"HLT_0317",NA,"HLGT_0338",NA,"GENERAL DISORDERS AND ADMINISTRATION SITE CONDITIONS",NA,"GENERAL DISORDERS AND ADMINISTRATION SITE CONDITIONS",10018065,"Mild Adverse Event","No","Probably Related",NA,"No","No","No","No","No","No","No","01/16/2014","01/03/2014",NA
"CDISCPILOT01","701-1015","AE","Adverse Events","Diarrhoea","Recovered/Resolved","DIARRHEA",10012727,"DIARRHOEA",NA,"HLT_0148",NA,"HLGT_0588",NA,"GASTROINTESTINAL DISORDERS",NA,"GASTROINTESTINAL DISORDERS",10017947,"Mild Adverse Event","No","Remote",NA,"No","No","No","No","No","No","No","01/16/2014","01/09/2014","01/11/2014"
"CDISCPILOT01","701-1023","AE","Adverse Events","Atrioventricular Block Second Degree","Not Recovered/not Resolved","AV BLOCK SECOND DEGREE",10003851,"ATRIOVENTRICULAR BLOCK SECOND DEGREE",NA,"HLT_0415",NA,"HLGT_0086",NA,"CARDIAC DISORDERS",NA,"CARDIAC DISORDERS",10007541,"Mild Adverse Event","No","Possibly Related",NA,"No","No","No","No","No","No","No","08/27/2012","08/26/2012",NA
"CDISCPILOT01","701-1023","AE","Adverse Events","Erythema","Not Recovered/not Resolved","ERYTHEMA",10015150,"ERYTHEMA",NA,"HLT_0284",NA,"HLGT_0192",NA,"SKIN AND SUBCUTANEOUS TISSUE DISORDERS",NA,"SKIN AND SUBCUTANEOUS TISSUE DISORDERS",10040785,"Mild Adverse Event","No","Possibly Related",NA,"No","No","No","No","No","No","No","08/27/2012","08/07/2012","08/30/2012"
"CDISCPILOT01","701-1023","AE","Adverse Events","Erythema","Not Recovered/not Resolved","LOCALIZED ERYTHEMA",10024781,"ERYTHEMA",NA,"HLT_0284",NA,"HLGT_0192",NA,"SKIN AND SUBCUTANEOUS TISSUE DISORDERS",NA,"SKIN AND SUBCUTANEOUS TISSUE DISORDERS",10040785,"Moderate Adverse Event","No","Probably Related",NA,"No","No","No","No","No","No","No","08/27/2012","08/07/2012",NA
"CDISCPILOT01","701-1023","AE","Adverse Events","Erythema","Recovered/Resolved","ERYTHEMA",10015150,"ERYTHEMA",NA,"HLT_0284",NA,"HLGT_0192",NA,"SKIN AND SUBCUTANEOUS TISSUE DISORDERS",NA,"SKIN AND SUBCUTANEOUS TISSUE DISORDERS",10040785,"Mild Adverse Event","No","Possibly Related",NA,"No","No","No","No","No","No","No","09/02/2012","08/07/2012","08/30/2012"
"CDISCPILOT01","701-1028","AE","Adverse Events","Application Site Erythema","Not Recovered/not Resolved","APPLICATION SITE ERYTHEMA",10003041,"APPLICATION SITE ERYTHEMA",NA,"HLT_0617",NA,"HLGT_0152",NA,"GENERAL DISORDERS AND ADMINISTRATION SITE CONDITIONS",NA,"GENERAL DISORDERS AND ADMINISTRATION SITE CONDITIONS",10018065,"Mild Adverse Event","No","Possibly Related",NA,"No","No","No","No","No","No","No","08/01/2013","07/21/2013",NA
"CDISCPILOT01","701-1028","AE","Adverse Events","Application Site Pruritus","Not Recovered/not Resolved","APPLICATION SITE ITCHING",10003047,"APPLICATION SITE PRURITUS",NA,"HLT_0317",NA,"HLGT_0338",NA,"GENERAL DISORDERS AND ADMINISTRATION SITE CONDITIONS",NA,"GENERAL DISORDERS AND ADMINISTRATION SITE CONDITIONS",10018065,"Mild Adverse Event","No","Probably Related",NA,"No","No","No","No","No","No","No","08/14/2013","08/08/2013",NA
"CDISCPILOT01","701-1034","AE","Adverse Events","Application Site Pruritus","Not Recovered/not Resolved","APPLICATION SITE ITCHING",10003047,"APPLICATION SITE PRURITUS",NA,"HLT_0317",NA,"HLGT_0338",NA,"GENERAL DISORDERS AND ADMINISTRATION SITE CONDITIONS",NA,"GENERAL DISORDERS AND ADMINISTRATION SITE CONDITIONS",10018065,"Mild Adverse Event","No","Probably Related",NA,"No","No","No","No","No","No","No","09/25/2014","08/27/2014",NA
"CDISCPILOT01","701-1034","AE","Adverse Events","Fatigue","Not Recovered/not Resolved","FATIGUE",10016256,"FATIGUE",NA,"HLT_0043",NA,"HLGT_0181",NA,"GENERAL DISORDERS AND ADMINISTRATION SITE CONDITIONS",NA,"GENERAL DISORDERS AND ADMINISTRATION SITE CONDITIONS",10018065,"Mild Adverse Event","No","Possibly Related",NA,"No","No","No","No","No","No","No","11/18/2014","11/02/2014",NA
"CDISCPILOT01","701-1047","AE","Adverse Events","Bundle Branch Block Left","Not Recovered/not Resolved","LEFT BUNDLE BRANCH BLOCK",10024100,"BUNDLE BRANCH BLOCK LEFT",NA,"HLT_0281",NA,"HLGT_0721",NA,"CARDIAC DISORDERS",NA,"CARDIAC DISORDERS",10007541,"Mild Adverse Event","No","Not Related",NA,"No","No","No","No","No","No","No","03/10/2013","03/10/2013",NA
"CDISCPILOT01","701-1047","AE","Adverse Events","Hiatus Hernia","Not Recovered/not Resolved","HERNIA HIATAL",10019914,"HIATUS HERNIA",NA,"HLT_0159",NA,"HLGT_0109",NA,"GASTROINTESTINAL DISORDERS",NA,"GASTROINTESTINAL DISORDERS",10017947,"Moderate Adverse Event","No","Not Related",NA,"No","No","No","No","No","No","No","02/12/2013","02/12/2013","02/12/2013"
"CDISCPILOT01","701-1047","AE","Adverse Events","Hiatus Hernia","Recovered/Resolved","HERNIA HIATAL",10019914,"HIATUS HERNIA",NA,"HLT_0159",NA,"HLGT_0109",NA,"GASTROINTESTINAL DISORDERS",NA,"GASTROINTESTINAL DISORDERS",10017947,"Moderate Adverse Event","No","Not Related",NA,"No","No","No","No","No","No","No","02/25/2013","02/12/2013","02/12/2013"
"CDISCPILOT01","701-1047","AE","Adverse Events","Upper Respiratory Tract Infection","Not Recovered/not Resolved","UPPER RESPIRATORY INFECTION",10046300,"UPPER RESPIRATORY TRACT INFECTION",NA,"HLT_0520",NA,"HLGT_0489",NA,"INFECTIONS AND INFESTATIONS",NA,"INFECTIONS AND INFESTATIONS",10021881,"Mild Adverse Event","No","Not Related",NA,"No","No","No","No","No","No","No","03/10/2013","03/06/2013",NA
"CDISCPILOT01","701-1097","AE","Adverse Events","Application Site Pruritus","Not Recovered/not Resolved","APPLICATION SITE ITCHING",10003047,"APPLICATION SITE PRURITUS",NA,"HLT_0317",NA,"HLGT_0338",NA,"GENERAL DISORDERS AND ADMINISTRATION SITE CONDITIONS",NA,"GENERAL DISORDERS AND ADMINISTRATION SITE CONDITIONS",10018065,"Mild Adverse Event","No","Possibly Related",NA,"No","No","No","No","No","No","No","02/26/2014","02/21/2014",NA
"CDISCPILOT01","701-1097","AE","Adverse Events","Application Site Pruritus","Not Recovered/not Resolved","APPLICATION SITE ITCHING",10003047,"APPLICATION SITE PRURITUS",NA,"HLT_0317",NA,"HLGT_0338",NA,"GENERAL DISORDERS AND ADMINISTRATION SITE CONDITIONS",NA,"GENERAL DISORDERS AND ADMINISTRATION SITE CONDITIONS",10018065,"Moderate Adverse Event","No","Possibly Related",NA,"No","No","No","No","No","No","No","05/21/2014","02/21/2014",NA
"CDISCPILOT01","701-1097","AE","Adverse Events","Application Site Vesicles","Recovered/Resolved","APPLICATION SITE BLISTER",10053414,"APPLICATION SITE VESICLES",NA,"HLT_0180",NA,"HLGT_0576",NA,"GENERAL DISORDERS AND ADMINISTRATION SITE CONDITIONS",NA,"GENERAL DISORDERS AND ADMINISTRATION SITE CONDITIONS",10018065,"Mild Adverse Event","No","Probably Related",NA,"No","No","No","No","No","No","No","02/26/2014","02/20/2014","02/22/2014"
"CDISCPILOT01","701-1097","AE","Adverse Events","Erythema","Not Recovered/not Resolved","ERYTHEMA",10015150,"ERYTHEMA",NA,"HLT_0284",NA,"HLGT_0192",NA,"SKIN AND SUBCUTANEOUS TISSUE DISORDERS",NA,"SKIN AND SUBCUTANEOUS TISSUE DISORDERS",10040785,"Mild Adverse Event","No","Possibly Related",NA,"No","No","No","No","No","No","No","01/15/2014","01/03/2014",NA
"CDISCPILOT01","701-1097","AE","Adverse Events","Nasal Congestion","Recovered/Resolved","NASAL CONGESTION",10028735,"NASAL CONGESTION",NA,"HLT_0118",NA,"HLGT_0549",NA,"RESPIRATORY, THORACIC AND MEDIASTINAL DISORDERS",NA,"RESPIRATORY, THORACIC AND MEDIASTINAL DISORDERS",10038738,"Mild Adverse Event","No","Not Related",NA,"No","No","No","No","No","No","No","04/23/2014","04/19/2014","04/22/2014"
"CDISCPILOT01","701-1097","AE","Adverse Events","Pharyngolaryngeal Pain","Recovered/Resolved","SORE THROAT",10041367,"PHARYNGOLARYNGEAL PAIN",NA,"HLT_0130",NA,"HLGT_0402",NA,"RESPIRATORY, THORACIC AND MEDIASTINAL DISORDERS",NA,"RESPIRATORY, THORACIC AND MEDIASTINAL DISORDERS",10038738,"Mild Adverse Event","No","Not Related",NA,"No","No","No","No","No","No","No","04/23/2014","04/19/2014","04/22/2014"
"CDISCPILOT01","701-1097","AE","Adverse Events","Pruritus Generalised","Recovered/Resolved","GENERALIZED PRURITUS",10018123,"PRURITUS GENERALISED",NA,"HLT_0123",NA,"HLGT_0689",NA,"SKIN AND SUBCUTANEOUS TISSUE DISORDERS",NA,"SKIN AND SUBCUTANEOUS TISSUE DISORDERS",10040785,"Moderate Adverse Event","No","Possibly Related",NA,"No","No","No","No","No","No","No","02/26/2014","02/20/2014","02/20/2014"
"CDISCPILOT01","701-1097","AE","Adverse Events","Pruritus Generalised","Recovered/Resolved","GENERALIZED PRURITUS",10018123,"PRURITUS GENERALISED",NA,"HLT_0123",NA,"HLGT_0689",NA,"SKIN AND SUBCUTANEOUS TISSUE DISORDERS",NA,"SKIN AND SUBCUTANEOUS TISSUE DISORDERS",10040785,"Moderate Adverse Event","No","Possibly Related",NA,"No","No","No","No","No","No","No","03/26/2014","03/21/2014","03/21/2014"
"CDISCPILOT01","701-1097","AE","Adverse Events","Pruritus Generalised","Recovered/Resolved","GENERALIZED PRURITUS",10018123,"PRURITUS GENERALISED",NA,"HLT_0123",NA,"HLGT_0689",NA,"SKIN AND SUBCUTANEOUS TISSUE DISORDERS",NA,"SKIN AND SUBCUTANEOUS TISSUE DISORDERS",10040785,"Moderate Adverse Event","No","Possibly Related",NA,"No","No","No","No","No","No","No","04/23/2014","03/31/2014","03/31/2014"
"CDISCPILOT01","701-1097","AE","Adverse Events","Pruritus Generalised","Recovered/Resolved","GENERALIZED PRURITUS",10018123,"PRURITUS GENERALISED",NA,"HLT_0123",NA,"HLGT_0689",NA,"SKIN AND SUBCUTANEOUS TISSUE DISORDERS",NA,"SKIN AND SUBCUTANEOUS TISSUE DISORDERS",10040785,"Moderate Adverse Event","No","Possibly Related",NA,"No","No","No","No","No","No","No","04/23/2014","04/19/2014","04/20/2014"
"CDISCPILOT01","701-1111","AE","Adverse Events","Arthralgia","Not Recovered/not Resolved","GENERALIZED JOINT PAIN",10062438,"ARTHRALGIA",NA,"HLT_0375",NA,"HLGT_0610",NA,"MUSCULOSKELETAL AND CONNECTIVE TISSUE DISORDERS",NA,"MUSCULOSKELETAL AND CONNECTIVE TISSUE DISORDERS",10028395,"Moderate Adverse Event","No","Not Related",NA,"No","No","No","No","No","No","No","09/17/2012","09/13/2012",NA
"CDISCPILOT01","701-1111","AE","Adverse Events","Cellulitis","Not Recovered/not Resolved","CELLULITIS OF LEG",10007912,"CELLULITIS",NA,"HLT_0613",NA,"HLGT_0066",NA,"INFECTIONS AND INFESTATIONS",NA,"INFECTIONS AND INFESTATIONS",10021881,"Moderate Adverse Event","No","Not Related",NA,"No","No","No","No","No","No","No","09/17/2012","09/13/2012",NA
"CDISCPILOT01","701-1111","AE","Adverse Events","Erythema","Not Recovered/not Resolved","ERYTHEMA",10015150,"ERYTHEMA",NA,"HLT_0284",NA,"HLGT_0192",NA,"SKIN AND SUBCUTANEOUS TISSUE DISORDERS",NA,"SKIN AND SUBCUTANEOUS TISSUE DISORDERS",10040785,"Mild Adverse Event","No","Not Related",NA,"No","No","No","No","No","No","No","09/05/2012","09/02/2012","09/07/2012"
"CDISCPILOT01","701-1111","AE","Adverse Events","Erythema","Recovered/Resolved","ERYTHEMA",10015150,"ERYTHEMA",NA,"HLT_0284",NA,"HLGT_0192",NA,"SKIN AND SUBCUTANEOUS TISSUE DISORDERS",NA,"SKIN AND SUBCUTANEOUS TISSUE DISORDERS",10040785,"Mild Adverse Event","No","Not Related",NA,"No","No","No","No","No","No","No","09/17/2012","09/02/2012","09/07/2012"
"CDISCPILOT01","701-1111","AE","Adverse Events","Localised Infection","Not Recovered/not Resolved","LOCALIZED INFECTION",10062469,"LOCALISED INFECTION",NA,"HLT_0435",NA,"HLGT_0557",NA,"INFECTIONS AND INFESTATIONS",NA,"INFECTIONS AND INFESTATIONS",10021881,"Moderate Adverse Event","No","Not Related",NA,"No","No","No","No","No","No","No","09/17/2012","07/08/2012",NA
"CDISCPILOT01","701-1111","AE","Adverse Events","Micturition Urgency","Not Recovered/not Resolved","URINARY URGENCY",10046593,"MICTURITION URGENCY",NA,"HLT_0294",NA,"HLGT_0483",NA,"RENAL AND URINARY DISORDERS",NA,"RENAL AND URINARY DISORDERS",10038359,"Mild Adverse Event","No","Not Related",NA,"No","No","No","No","No","No","No","09/17/2012","09/07/2012",NA
"CDISCPILOT01","701-1111","AE","Adverse Events","Pruritus","Not Recovered/not Resolved","ITCHING",10023084,"PRURITUS",NA,"HLT_0778",NA,"HLGT_0695",NA,"SKIN AND SUBCUTANEOUS TISSUE DISORDERS",NA,"SKIN AND SUBCUTANEOUS TISSUE DISORDERS",10040785,"Mild Adverse Event","No","Not Related",NA,"No","No","No","No","No","No","No","09/05/2012","09/02/2012","09/07/2012"
"CDISCPILOT01","701-1111","AE","Adverse Events","Pruritus","Recovered/Resolved","ITCHING",10023084,"PRURITUS",NA,"HLT_0778",NA,"HLGT_0695",NA,"SKIN AND SUBCUTANEOUS TISSUE DISORDERS",NA,"SKIN AND SUBCUTANEOUS TISSUE DISORDERS",10040785,"Mild Adverse Event","No","Not Related",NA,"No","No","No","No","No","No","No","09/17/2012","09/02/2012","09/07/2012"
"CDISCPILOT01","701-1115","AE","Adverse Events","Application Site Dermatitis","Not Recovered/not Resolved","APPLICATION SITE RASH",10003054,"APPLICATION SITE DERMATITIS",NA,"HLT_0343",NA,"HLGT_0241",NA,"GENERAL DISORDERS AND ADMINISTRATION SITE CONDITIONS",NA,"GENERAL DISORDERS AND ADMINISTRATION SITE CONDITIONS",10018065,"Moderate Adverse Event","No","Probably Related",NA,"No","No","No","No","No","No","No","01/23/2013","01/19/2013",NA
"CDISCPILOT01","701-1115","AE","Adverse Events","Application Site Erythema","Not Recovered/not Resolved","APPLICATION SITE REDNESS",10003058,"APPLICATION SITE ERYTHEMA",NA,"HLT_0617",NA,"HLGT_0152",NA,"GENERAL DISORDERS AND ADMINISTRATION SITE CONDITIONS",NA,"GENERAL DISORDERS AND ADMINISTRATION SITE CONDITIONS",10018065,"Mild Adverse Event","No","Probably Related",NA,"No","No","No","No","No","No","No","12/13/2012","12/02/2012",NA
"CDISCPILOT01","701-1115","AE","Adverse Events","Application Site Erythema","Not Recovered/not Resolved","APPLICATION SITE REDNESS",10003058,"APPLICATION SITE ERYTHEMA",NA,"HLT_0617",NA,"HLGT_0152",NA,"GENERAL DISORDERS AND ADMINISTRATION SITE CONDITIONS",NA,"GENERAL DISORDERS AND ADMINISTRATION SITE CONDITIONS",10018065,"Moderate Adverse Event","No","Probably Related",NA,"No","No","No","No","No","No","No","01/23/2013","12/02/2012",NA
"CDISCPILOT01","701-1115","AE","Adverse Events","Application Site Irritation","Not Recovered/not Resolved","APPLICATION SITE BURNING",10048942,"APPLICATION SITE IRRITATION",NA,"HLT_0061",NA,"HLGT_0346",NA,"GENERAL DISORDERS AND ADMINISTRATION SITE CONDITIONS",NA,"GENERAL DISORDERS AND ADMINISTRATION SITE CONDITIONS",10018065,"Mild Adverse Event","No","Possibly Related",NA,"No","No","No","No","No","No","No","12/26/2012","12/26/2012","12/26/2012"
"CDISCPILOT01","701-1115","AE","Adverse Events","Application Site Irritation","Recovered/Resolved","APPLICATION SITE BURNING",10048942,"APPLICATION SITE IRRITATION",NA,"HLT_0061",NA,"HLGT_0346",NA,"GENERAL DISORDERS AND ADMINISTRATION SITE CONDITIONS",NA,"GENERAL DISORDERS AND ADMINISTRATION SITE CONDITIONS",10018065,"Mild Adverse Event","No","Possibly Related",NA,"No","No","No","No","No","No","No","12/28/2012","12/26/2012","12/26/2012"
"CDISCPILOT01","701-1115","AE","Adverse Events","Application Site Irritation","Not Recovered/not Resolved","APPLICATION SITE BURNING",10048942,"APPLICATION SITE IRRITATION",NA,"HLT_0061",NA,"HLGT_0346",NA,"GENERAL DISORDERS AND ADMINISTRATION SITE CONDITIONS",NA,"GENERAL DISORDERS AND ADMINISTRATION SITE CONDITIONS",10018065,"Moderate Adverse Event","No","Probably Related",NA,"No","No","No","No","No","No","No","01/23/2013","01/19/2013",NA
"CDISCPILOT01","701-1115","AE","Adverse Events","Application Site Pruritus","Not Recovered/not Resolved","APPLICATION SITE ITCHING",10003047,"APPLICATION SITE PRURITUS",NA,"HLT_0317",NA,"HLGT_0338",NA,"GENERAL DISORDERS AND ADMINISTRATION SITE CONDITIONS",NA,"GENERAL DISORDERS AND ADMINISTRATION SITE CONDITIONS",10018065,"Mild Adverse Event","No","Probably Related",NA,"No","No","No","No","No","No","No","12/13/2012","12/02/2012",NA
"CDISCPILOT01","701-1115","AE","Adverse Events","Application Site Pruritus","Not Recovered/not Resolved","APPLICATION SITE ITCHING",10003047,"APPLICATION SITE PRURITUS",NA,"HLT_0317",NA,"HLGT_0338",NA,"GENERAL DISORDERS AND ADMINISTRATION SITE CONDITIONS",NA,"GENERAL DISORDERS AND ADMINISTRATION SITE CONDITIONS",10018065,"Moderate Adverse Event","No","Probably Related",NA,"No","No","No","No","No","No","No","01/23/2013","12/02/2012",NA
"CDISCPILOT01","701-1115","AE","Adverse Events","Fatigue","Not Recovered/not Resolved","FATIGUE",10016256,"FATIGUE",NA,"HLT_0043",NA,"HLGT_0181",NA,"GENERAL DISORDERS AND ADMINISTRATION SITE CONDITIONS",NA,"GENERAL DISORDERS AND ADMINISTRATION SITE CONDITIONS",10018065,"Moderate Adverse Event","No","Remote",NA,"No","No","No","No","No","No","No","01/23/2013","01/14/2013",NA
"CDISCPILOT01","701-1118","AE","Adverse Events","Cough","Not Recovered/not Resolved","COUGH",10011224,"COUGH",NA,"HLT_0701",NA,"HLGT_0280",NA,"RESPIRATORY, THORACIC AND MEDIASTINAL DISORDERS",NA,"RESPIRATORY, THORACIC AND MEDIASTINAL DISORDERS",10038738,"Mild Adverse Event","No","Not Related",NA,"No","No","No","No","No","No","No","03/10/2014","2003",NA
"CDISCPILOT01","701-1130","AE","Adverse Events","Eye Allergy","Recovered/Resolved","EYE ALLERGY",10015907,"EYE ALLERGY",NA,"HLT_0256",NA,"HLGT_0071",NA,"EYE DISORDERS",NA,"EYE DISORDERS",10015919,"Mild Adverse Event","No","Not Related",NA,"No","No","No","No","No","No","No","05/16/2014","05/09/2014","05/09/2014"
"CDISCPILOT01","701-1130","AE","Adverse Events","Eye Pruritus","Not Recovered/not Resolved","EYE ITCHING",10015947,"EYE PRURITUS",NA,"HLT_0523",NA,"HLGT_0240",NA,"EYE DISORDERS",NA,"EYE DISORDERS",10015919,"Mild Adverse Event","No","Remote",NA,"No","No","No","No","No","No","No","06/07/2014","05/22/2014",NA
"CDISCPILOT01","701-1130","AE","Adverse Events","Eye Swelling","Recovered/Resolved","EYES SWOLLEN",10016014,"EYE SWELLING",NA,"HLT_0008",NA,"HLGT_0466",NA,"EYE DISORDERS",NA,"EYE DISORDERS",10015919,"Mild Adverse Event","No","Not Related",NA,"No","No","No","No","No","No","No","05/16/2014","05/09/2014","05/09/2014"
"CDISCPILOT01","701-1130","AE","Adverse Events","Nasal Congestion","Not Recovered/not Resolved","NASAL CONGESTION",10028735,"NASAL CONGESTION",NA,"HLT_0118",NA,"HLGT_0549",NA,"RESPIRATORY, THORACIC AND MEDIASTINAL DISORDERS",NA,"RESPIRATORY, THORACIC AND MEDIASTINAL DISORDERS",10038738,"Mild Adverse Event","No","Remote",NA,"No","No","No","No","No","No","No","06/07/2014","05/22/2014",NA
"CDISCPILOT01","701-1130","AE","Adverse Events","Pruritus","Not Recovered/not Resolved","ITCHING BOTH HANDS",10023087,"PRURITUS",NA,"HLT_0778",NA,"HLGT_0695",NA,"SKIN AND SUBCUTANEOUS TISSUE DISORDERS",NA,"SKIN AND SUBCUTANEOUS TISSUE DISORDERS",10040785,"Mild Adverse Event","No","Remote",NA,"No","No","No","No","No","No","No","06/07/2014","05/22/2014",NA
"CDISCPILOT01","701-1130","AE","Adverse Events","Pyrexia","Recovered/Resolved","FEVER",10016558,"PYREXIA",NA,"HLT_0310",NA,"HLGT_0652",NA,"GENERAL DISORDERS AND ADMINISTRATION SITE CONDITIONS",NA,"GENERAL DISORDERS AND ADMINISTRATION SITE CONDITIONS",10018065,"Mild Adverse Event","No","Not Related",NA,"No","No","No","No","No","No","No","03/15/2014","03/09/2014","03/09/2014"
"CDISCPILOT01","701-1130","AE","Adverse Events","Urinary Tract Infection","Not Recovered/not Resolved","URINARY TRACT INFECTION",10046571,"URINARY TRACT INFECTION",NA,"HLT_0161",NA,"HLGT_0093",NA,"INFECTIONS AND INFESTATIONS",NA,"INFECTIONS AND INFESTATIONS",10021881,"Mild Adverse Event","No","Not Related",NA,"No","No","No","No","No","No","No","03/15/2014","03/09/2014","03/16/2014"
"CDISCPILOT01","701-1130","AE","Adverse Events","Urinary Tract Infection","Recovered/Resolved","URINARY TRACT INFECTION",10046571,"URINARY TRACT INFECTION",NA,"HLT_0161",NA,"HLGT_0093",NA,"INFECTIONS AND INFESTATIONS",NA,"INFECTIONS AND INFESTATIONS",10021881,"Mild Adverse Event","No","Not Related",NA,"No","No","No","No","No","No","No","03/17/2014","03/09/2014","03/16/2014"
"CDISCPILOT01","701-1133","AE","Adverse Events","Application Site Erythema","Not Recovered/not Resolved","APPLICATION SITE REDNESS",10003058,"APPLICATION SITE ERYTHEMA",NA,"HLT_0617",NA,"HLGT_0152",NA,"GENERAL DISORDERS AND ADMINISTRATION SITE CONDITIONS",NA,"GENERAL DISORDERS AND ADMINISTRATION SITE CONDITIONS",10018065,"Mild Adverse Event","No","Probably Related",NA,"No","No","No","No","No","No","No","01/22/2013","12/27/2012",NA
"CDISCPILOT01","701-1133","AE","Adverse Events","Application Site Erythema","Not Recovered/not Resolved","APPLICATION SITE REDNESS",10003058,"APPLICATION SITE ERYTHEMA",NA,"HLT_0617",NA,"HLGT_0152",NA,"GENERAL DISORDERS AND ADMINISTRATION SITE CONDITIONS",NA,"GENERAL DISORDERS AND ADMINISTRATION SITE CONDITIONS",10018065,"Moderate Adverse Event","No","Probably Related",NA,"No","No","No","No","No","No","No","02/18/2013","12/27/2012",NA
"CDISCPILOT01","701-1133","AE","Adverse Events","Application Site Pruritus","Not Recovered/not Resolved","APPLICATION SITE ITCHING",10003047,"APPLICATION SITE PRURITUS",NA,"HLT_0317",NA,"HLGT_0338",NA,"GENERAL DISORDERS AND ADMINISTRATION SITE CONDITIONS",NA,"GENERAL DISORDERS AND ADMINISTRATION SITE CONDITIONS",10018065,"Mild Adverse Event","No","Probably Related",NA,"No","No","No","No","No","No","No","01/22/2013","12/27/2012",NA
"CDISCPILOT01","701-1133","AE","Adverse Events","Application Site Pruritus","Not Recovered/not Resolved","APPLICATION SITE ITCHING",10003047,"APPLICATION SITE PRURITUS",NA,"HLT_0317",NA,"HLGT_0338",NA,"GENERAL DISORDERS AND ADMINISTRATION SITE CONDITIONS",NA,"GENERAL DISORDERS AND ADMINISTRATION SITE CONDITIONS",10018065,"Moderate Adverse Event","No","Probably Related",NA,"No","No","No","No","No","No","No","02/18/2013","12/27/2012",NA
"CDISCPILOT01","701-1146","AE","Adverse Events","Application Site Erythema","Not Recovered/not Resolved","APPLICATION SITE ERYTHEMA",10003041,"APPLICATION SITE ERYTHEMA",NA,"HLT_0617",NA,"HLGT_0152",NA,"GENERAL DISORDERS AND ADMINISTRATION SITE CONDITIONS",NA,"GENERAL DISORDERS AND ADMINISTRATION SITE CONDITIONS",10018065,"Mild Adverse Event","No","Probably Related",NA,"No","No","No","No","No","No","No","06/16/2013","06/10/2013",NA
"CDISCPILOT01","701-1146","AE","Adverse Events","Application Site Erythema","Not Recovered/not Resolved","APPLICATION SITE ERYTHEMA",10003041,"APPLICATION SITE ERYTHEMA",NA,"HLT_0617",NA,"HLGT_0152",NA,"GENERAL DISORDERS AND ADMINISTRATION SITE CONDITIONS",NA,"GENERAL DISORDERS AND ADMINISTRATION SITE CONDITIONS",10018065,"Moderate Adverse Event","No","Probably Related",NA,"No","No","No","No","No","No","No","06/30/2013","06/10/2013",NA
"CDISCPILOT01","701-1146","AE","Adverse Events","Application Site Irritation","Recovered/Resolved","APPLICATION SITE IRRITATION",10003046,"APPLICATION SITE IRRITATION",NA,"HLT_0061",NA,"HLGT_0346",NA,"GENERAL DISORDERS AND ADMINISTRATION SITE CONDITIONS",NA,"GENERAL DISORDERS AND ADMINISTRATION SITE CONDITIONS",10018065,"Mild Adverse Event","No","Probably Related",NA,"No","No","No","No","No","No","No","06/03/2013","06/01/2013","06/02/2013"
"CDISCPILOT01","701-1146","AE","Adverse Events","Application Site Irritation","Not Recovered/not Resolved","APPLICATION SITE BURNING",10048942,"APPLICATION SITE IRRITATION",NA,"HLT_0061",NA,"HLGT_0346",NA,"GENERAL DISORDERS AND ADMINISTRATION SITE CONDITIONS",NA,"GENERAL DISORDERS AND ADMINISTRATION SITE CONDITIONS",10018065,"Moderate Adverse Event","No","Probably Related",NA,"No","No","No","No","No","No","No","06/30/2013","06/26/2013",NA
"CDISCPILOT01","701-1146","AE","Adverse Events","Application Site Pain","Not Recovered/not Resolved","APPLICATION SITE PAIN",10003051,"APPLICATION SITE PAIN",NA,"HLT_0342",NA,"HLGT_0085",NA,"GENERAL DISORDERS AND ADMINISTRATION SITE CONDITIONS",NA,"GENERAL DISORDERS AND ADMINISTRATION SITE CONDITIONS",10018065,"Moderate Adverse Event","No","Probably Related",NA,"No","No","No","No","No","No","No","06/30/2013","06/22/2013",NA
"CDISCPILOT01","701-1146","AE","Adverse Events","Application Site Pruritus","Not Recovered/not Resolved","APPLICATION SITE ITCHING",10003047,"APPLICATION SITE PRURITUS",NA,"HLT_0317",NA,"HLGT_0338",NA,"GENERAL DISORDERS AND ADMINISTRATION SITE CONDITIONS",NA,"GENERAL DISORDERS AND ADMINISTRATION SITE CONDITIONS",10018065,"Mild Adverse Event","No","Probably Related",NA,"No","No","No","No","No","No","No","06/16/2013","06/10/2013",NA
"CDISCPILOT01","701-1146","AE","Adverse Events","Application Site Pruritus","Not Recovered/not Resolved","APPLICATION SITE ITCHING",10003047,"APPLICATION SITE PRURITUS",NA,"HLT_0317",NA,"HLGT_0338",NA,"GENERAL DISORDERS AND ADMINISTRATION SITE CONDITIONS",NA,"GENERAL DISORDERS AND ADMINISTRATION SITE CONDITIONS",10018065,"Moderate Adverse Event","No","Probably Related",NA,"No","No","No","No","No","No","No","06/30/2013","06/10/2013",NA
"CDISCPILOT01","701-1146","AE","Adverse Events","Application Site Vesicles","Not Recovered/not Resolved","APPLICATION SITE VESICLES",10048941,"APPLICATION SITE VESICLES",NA,"HLT_0180",NA,"HLGT_0576",NA,"GENERAL DISORDERS AND ADMINISTRATION SITE CONDITIONS",NA,"GENERAL DISORDERS AND ADMINISTRATION SITE CONDITIONS",10018065,"Moderate Adverse Event","No","Probably Related",NA,"No","No","No","No","No","No","No","06/30/2013","06/26/2013",NA
"CDISCPILOT01","701-1146","AE","Adverse Events","Fatigue","Not Recovered/not Resolved","FATIGUE",10016256,"FATIGUE",NA,"HLT_0043",NA,"HLGT_0181",NA,"GENERAL DISORDERS AND ADMINISTRATION SITE CONDITIONS",NA,"GENERAL DISORDERS AND ADMINISTRATION SITE CONDITIONS",10018065,"Mild Adverse Event","No","Possibly Related",NA,"No","No","No","No","No","No","No","06/03/2013","06/03/2013",NA
"CDISCPILOT01","701-1146","AE","Adverse Events","Rash","Not Recovered/not Resolved","RASH",10037844,"RASH",NA,"HLT_0762",NA,"HLGT_0198",NA,"SKIN AND SUBCUTANEOUS TISSUE DISORDERS",NA,"SKIN AND SUBCUTANEOUS TISSUE DISORDERS",10040785,"Mild Adverse Event","No","Not Related",NA,"No","No","No","No","No","No","No","05/18/2013","05/16/2013","06/02/2013"
"CDISCPILOT01","701-1146","AE","Adverse Events","Rash","Recovered/Resolved","RASH",10037844,"RASH",NA,"HLT_0762",NA,"HLGT_0198",NA,"SKIN AND SUBCUTANEOUS TISSUE DISORDERS",NA,"SKIN AND SUBCUTANEOUS TISSUE DISORDERS",10040785,"Mild Adverse Event","No","Not Related",NA,"No","No","No","No","No","No","No","06/03/2013","05/16/2013","06/02/2013"
"CDISCPILOT01","701-1148","AE","Adverse Events","Actinic Keratosis","Not Recovered/not Resolved","ACTINIC KERATOSIS",10000614,"ACTINIC KERATOSIS",NA,"HLT_0609",NA,"HLGT_0490",NA,"SKIN AND SUBCUTANEOUS TISSUE DISORDERS",NA,"SKIN AND SUBCUTANEOUS TISSUE DISORDERS",10040785,"Mild Adverse Event","No","Not Related",NA,"No","No","No","No","No","No","No","02/20/2014","02/12/2014",NA
"CDISCPILOT01","701-1148","AE","Adverse Events","Application Site Erythema","Not Recovered/not Resolved","APPLICATION SITE REDNESS",10003058,"APPLICATION SITE ERYTHEMA",NA,"HLT_0617",NA,"HLGT_0152",NA,"GENERAL DISORDERS AND ADMINISTRATION SITE CONDITIONS",NA,"GENERAL DISORDERS AND ADMINISTRATION SITE CONDITIONS",10018065,"Mild Adverse Event","No","Probably Related",NA,"No","No","No","No","No","No","No","09/05/2013","08/25/2013",NA
"CDISCPILOT01","701-1148","AE","Adverse Events","Application Site Pruritus","Not Recovered/not Resolved","APPLICATION SITE ITCHING",10003047,"APPLICATION SITE PRURITUS",NA,"HLT_0317",NA,"HLGT_0338",NA,"GENERAL DISORDERS AND ADMINISTRATION SITE CONDITIONS",NA,"GENERAL DISORDERS AND ADMINISTRATION SITE CONDITIONS",10018065,"Mild Adverse Event","No","Probably Related",NA,"No","No","No","No","No","No","No","09/05/2013","08/25/2013",NA
"CDISCPILOT01","701-1148","AE","Adverse Events","Calculus Urethral","Recovered/Resolved","URETHRAL CALCULUS",10046430,"CALCULUS URETHRAL",NA,"HLT_0550",NA,"HLGT_0414",NA,"RENAL AND URINARY DISORDERS",NA,"RENAL AND URINARY DISORDERS",10038359,"Moderate Adverse Event","No","Not Related",NA,"No","No","No","No","No","No","No","01/10/2014","12/17/2013","12/17/2013"
"CDISCPILOT01","701-1148","AE","Adverse Events","Depressed Mood","Not Recovered/not Resolved","DEPRESSED MOOD",10012374,"DEPRESSED MOOD",NA,"HLT_0784",NA,"HLGT_0122",NA,"PSYCHIATRIC DISORDERS",NA,"PSYCHIATRIC DISORDERS",10037175,"Moderate Adverse Event","No","Not Related",NA,"No","No","No","No","No","No","No","02/08/2014","07/29/2013",NA
"CDISCPILOT01","701-1148","AE","Adverse Events","Dyspepsia","Not Recovered/not Resolved","INDIGESTION",10021706,"DYSPEPSIA",NA,"HLT_0244",NA,"HLGT_0716",NA,"GASTROINTESTINAL DISORDERS",NA,"GASTROINTESTINAL DISORDERS",10017947,"Moderate Adverse Event","No","Not Related",NA,"No","No","No","No","No","No","No","02/08/2014",NA,NA
"CDISCPILOT01","701-1148","AE","Adverse Events","Epistaxis","Recovered/Resolved","NOSE BLEED",10029792,"EPISTAXIS",NA,"HLT_0386",NA,"HLGT_0577",NA,"RESPIRATORY, THORACIC AND MEDIASTINAL DISORDERS",NA,"RESPIRATORY, THORACIC AND MEDIASTINAL DISORDERS",10038738,"Mild Adverse Event","No","Not Related",NA,"No","No","No","No","No","No","No","01/10/2014","01/03/2014","01/03/2014"
"CDISCPILOT01","701-1148","AE","Adverse Events","Flank Pain","Recovered/Resolved","FLANK PAIN",10016750,"FLANK PAIN",NA,"HLT_0484",NA,"HLGT_0543",NA,"MUSCULOSKELETAL AND CONNECTIVE TISSUE DISORDERS",NA,"MUSCULOSKELETAL AND CONNECTIVE TISSUE DISORDERS",10028395,"Moderate Adverse Event","No","Not Related",NA,"No","No","No","No","No","No","No","01/10/2014","12/15/2013","12/17/2013"
"CDISCPILOT01","701-1148","AE","Adverse Events","Lower Respiratory Tract Infection","Not Recovered/not Resolved","CHEST COLD",10059607,"LOWER RESPIRATORY TRACT INFECTION",NA,"HLT_0052",NA,"HLGT_0217",NA,"INFECTIONS AND INFESTATIONS",NA,"INFECTIONS AND INFESTATIONS",10021881,"Moderate Adverse Event","No","Not Related",NA,"No","No","No","No","No","No","No","10/18/2013","10/12/2013","11/10/2013"
"CDISCPILOT01","701-1148","AE","Adverse Events","Lower Respiratory Tract Infection","Recovered/Resolved","CHEST COLD",10059607,"LOWER RESPIRATORY TRACT INFECTION",NA,"HLT_0052",NA,"HLGT_0217",NA,"INFECTIONS AND INFESTATIONS",NA,"INFECTIONS AND INFESTATIONS",10021881,"Moderate Adverse Event","No","Not Related",NA,"No","No","No","No","No","No","No","11/17/2013","10/12/2013","11/10/2013"
"CDISCPILOT01","701-1153","AE","Adverse Events","Increased Appetite","Not Recovered/not Resolved","INCREASED APPETITE",10021654,"INCREASED APPETITE",NA,"HLT_0566",NA,"HLGT_0769",NA,"METABOLISM AND NUTRITION DISORDERS",NA,"METABOLISM AND NUTRITION DISORDERS",10027433,"Mild Adverse Event","No","Possibly Related",NA,"No","No","No","No","No","No","No","10/19/2013","10/13/2013","11/06/2013"
"CDISCPILOT01","701-1153","AE","Adverse Events","Increased Appetite","Recovered/Resolved","INCREASED APPETITE",10021654,"INCREASED APPETITE",NA,"HLT_0566",NA,"HLGT_0769",NA,"METABOLISM AND NUTRITION DISORDERS",NA,"METABOLISM AND NUTRITION DISORDERS",10027433,"Mild Adverse Event","No","Possibly Related",NA,"No","No","No","No","No","No","No","11/18/2013","10/13/2013","11/06/2013"
"CDISCPILOT01","701-1180","AE","Adverse Events","Application Site Erythema","Not Recovered/not Resolved","APPLICATION SITE ERYTHEMA",10003041,"APPLICATION SITE ERYTHEMA",NA,"HLT_0617",NA,"HLGT_0152",NA,"GENERAL DISORDERS AND ADMINISTRATION SITE CONDITIONS",NA,"GENERAL DISORDERS AND ADMINISTRATION SITE CONDITIONS",10018065,"Moderate Adverse Event","No","Possibly Related",NA,"No","No","No","No","No","No","No","03/23/2013","03/19/2013",NA
"CDISCPILOT01","701-1180","AE","Adverse Events","Application Site Pruritus","Not Recovered/not Resolved","APPLICATION SITE ITCHING",10003047,"APPLICATION SITE PRURITUS",NA,"HLT_0317",NA,"HLGT_0338",NA,"GENERAL DISORDERS AND ADMINISTRATION SITE CONDITIONS",NA,"GENERAL DISORDERS AND ADMINISTRATION SITE CONDITIONS",10018065,"Moderate Adverse Event","No","Possibly Related",NA,"No","No","No","No","No","No","No","03/23/2013","03/19/2013",NA
"CDISCPILOT01","701-1180","AE","Adverse Events","Application Site Vesicles","Not Recovered/not Resolved","APPLICATION SITE BLISTER",10053414,"APPLICATION SITE VESICLES",NA,"HLT_0180",NA,"HLGT_0576",NA,"GENERAL DISORDERS AND ADMINISTRATION SITE CONDITIONS",NA,"GENERAL DISORDERS AND ADMINISTRATION SITE CONDITIONS",10018065,"Moderate Adverse Event","No","Possibly Related",NA,"No","No","No","No","No","No","No","03/23/2013","03/19/2013",NA
"CDISCPILOT01","701-1180","AE","Adverse Events","Headache","Not Recovered/not Resolved","HEADACHE",10019211,"HEADACHE",NA,"HLT_0064",NA,"HLGT_0344",NA,"NERVOUS SYSTEM DISORDERS",NA,"NERVOUS SYSTEM DISORDERS",10029205,"Moderate Adverse Event","No","Not Related",NA,"No","No","No","No","No","No","No","03/11/2013","2002",NA
"CDISCPILOT01","701-1180","AE","Adverse Events","Micturition Urgency","Not Recovered/not Resolved","URINARY URGENCY",10046593,"MICTURITION URGENCY",NA,"HLT_0294",NA,"HLGT_0483",NA,"RENAL AND URINARY DISORDERS",NA,"RENAL AND URINARY DISORDERS",10038359,"Mild Adverse Event","No","Possibly Related",NA,"No","No","No","No","No","No","No","02/25/2013","02/15/2013","03/19/2013"
"CDISCPILOT01","701-1180","AE","Adverse Events","Micturition Urgency","Recovered/Resolved","URINARY URGENCY",10046593,"MICTURITION URGENCY",NA,"HLT_0294",NA,"HLGT_0483",NA,"RENAL AND URINARY DISORDERS",NA,"RENAL AND URINARY DISORDERS",10038359,"Mild Adverse Event","No","Possibly Related",NA,"No","No","No","No","No","No","No","03/23/2013","02/15/2013","03/19/2013"
"CDISCPILOT01","701-1180","AE","Adverse Events","Nasopharyngitis","Recovered/Resolved","COLD",10009851,"NASOPHARYNGITIS",NA,"HLT_0036",NA,"HLGT_0709",NA,"INFECTIONS AND INFESTATIONS",NA,"INFECTIONS AND INFESTATIONS",10021881,"Mild Adverse Event","No","Not Related",NA,"No","No","No","No","No","No","No","03/11/2013","03/06/2013","03/07/2013"
"CDISCPILOT01","701-1180","AE","Adverse Events","Vomiting","Not Recovered/not Resolved","VOMITING",10047700,"VOMITING",NA,"HLT_0016",NA,"HLGT_0350",NA,"GASTROINTESTINAL DISORDERS",NA,"GASTROINTESTINAL DISORDERS",10017947,"Mild Adverse Event","No","Not Related",NA,"No","No","No","No","No","No","No","02/12/2013","02/12/2013","02/12/2013"
"CDISCPILOT01","701-1180","AE","Adverse Events","Vomiting","Recovered/Resolved","VOMITING",10047700,"VOMITING",NA,"HLT_0016",NA,"HLGT_0350",NA,"GASTROINTESTINAL DISORDERS",NA,"GASTROINTESTINAL DISORDERS",10017947,"Mild Adverse Event","No","Not Related",NA,"No","No","No","No","No","No","No","02/25/2013","02/12/2013","02/12/2013"
"CDISCPILOT01","701-1181","AE","Adverse Events","Agitation","Recovered/Resolved","AGITATION",10001497,"AGITATION",NA,"HLT_0140",NA,"HLGT_0170",NA,"PSYCHIATRIC DISORDERS",NA,"PSYCHIATRIC DISORDERS",10037175,"Moderate Adverse Event","No","Not Related",NA,"No","No","No","No","No","No","No","12/12/2013","12/09/2013","12/09/2013"
"CDISCPILOT01","701-1188","AE","Adverse Events","Application Site Urticaria","Not Recovered/not Resolved","APPLICATION SITE URTICARIA",10050104,"APPLICATION SITE URTICARIA",NA,"HLT_0196",NA,"HLGT_0233",NA,"GENERAL DISORDERS AND ADMINISTRATION SITE CONDITIONS",NA,"GENERAL DISORDERS AND ADMINISTRATION SITE CONDITIONS",10018065,"Mild Adverse Event","No","Probably Related",NA,"No","No","No","No","No","No","No","03/25/2013","03/21/2013",NA
"CDISCPILOT01","701-1188","AE","Adverse Events","Erythema","Not Recovered/not Resolved","ERYTHEMA",10015150,"ERYTHEMA",NA,"HLT_0284",NA,"HLGT_0192",NA,"SKIN AND SUBCUTANEOUS TISSUE DISORDERS",NA,"SKIN AND SUBCUTANEOUS TISSUE DISORDERS",10040785,"Mild Adverse Event","No","Probably Related",NA,"No","No","No","No","No","No","No","03/02/2013","02/16/2013",NA
"CDISCPILOT01","701-1188","AE","Adverse Events","Erythema","Not Recovered/not Resolved","ERYTHEMA",10015150,"ERYTHEMA",NA,"HLT_0284",NA,"HLGT_0192",NA,"SKIN AND SUBCUTANEOUS TISSUE DISORDERS",NA,"SKIN AND SUBCUTANEOUS TISSUE DISORDERS",10040785,"Moderate Adverse Event","No","Probably Related",NA,"No","No","No","No","No","No","No","03/16/2013","02/16/2013",NA
"CDISCPILOT01","701-1188","AE","Adverse Events","Pruritus","Not Recovered/not Resolved","ITCHING",10023084,"PRURITUS",NA,"HLT_0778",NA,"HLGT_0695",NA,"SKIN AND SUBCUTANEOUS TISSUE DISORDERS",NA,"SKIN AND SUBCUTANEOUS TISSUE DISORDERS",10040785,"Mild Adverse Event","No","Probably Related",NA,"No","No","No","No","No","No","No","03/02/2013","02/16/2013",NA
"CDISCPILOT01","701-1188","AE","Adverse Events","Pruritus","Not Recovered/not Resolved","ITCHING",10023084,"PRURITUS",NA,"HLT_0778",NA,"HLGT_0695",NA,"SKIN AND SUBCUTANEOUS TISSUE DISORDERS",NA,"SKIN AND SUBCUTANEOUS TISSUE DISORDERS",10040785,"Moderate Adverse Event","No","Probably Related",NA,"No","No","No","No","No","No","No","03/16/2013","02/16/2013",NA
"CDISCPILOT01","701-1188","AE","Adverse Events","Urticaria","Not Recovered/not Resolved","WELTS",10047906,"URTICARIA",NA,"HLT_0420",NA,"HLGT_0705",NA,"SKIN AND SUBCUTANEOUS TISSUE DISORDERS",NA,"SKIN AND SUBCUTANEOUS TISSUE DISORDERS",10040785,"Mild Adverse Event","No","Probably Related",NA,"No","No","No","No","No","No","No","03/16/2013","03/04/2013",NA
"CDISCPILOT01","701-1188","AE","Adverse Events","Urticaria","Not Recovered/not Resolved","WELTS",10047906,"URTICARIA",NA,"HLT_0420",NA,"HLGT_0705",NA,"SKIN AND SUBCUTANEOUS TISSUE DISORDERS",NA,"SKIN AND SUBCUTANEOUS TISSUE DISORDERS",10040785,"Moderate Adverse Event","No","Probably Related",NA,"No","No","No","No","No","No","No","03/25/2013","03/04/2013",NA
"CDISCPILOT01","701-1188","AE","Adverse Events","Urticaria","Not Recovered/not Resolved","WELTS",10047906,"URTICARIA",NA,"HLT_0420",NA,"HLGT_0705",NA,"SKIN AND SUBCUTANEOUS TISSUE DISORDERS",NA,"SKIN AND SUBCUTANEOUS TISSUE DISORDERS",10040785,"Mild Adverse Event","No","Probably Related",NA,"No","No","No","No","No","No","No","03/25/2013","03/21/2013",NA
"CDISCPILOT01","701-1192","AE","Adverse Events","Application Site Erythema","Not Recovered/not Resolved","APPLICATION SITE REDNESS",10003058,"APPLICATION SITE ERYTHEMA",NA,"HLT_0617",NA,"HLGT_0152",NA,"GENERAL DISORDERS AND ADMINISTRATION SITE CONDITIONS",NA,"GENERAL DISORDERS AND ADMINISTRATION SITE CONDITIONS",10018065,"Mild Adverse Event","No","Probably Related",NA,"No","No","No","No","No","No","No","12/13/2012","12/05/2012",NA
"CDISCPILOT01","701-1192","AE","Adverse Events","Application Site Irritation","Not Recovered/not Resolved","APPLICATION SITE BURNING",10048942,"APPLICATION SITE IRRITATION",NA,"HLT_0061",NA,"HLGT_0346",NA,"GENERAL DISORDERS AND ADMINISTRATION SITE CONDITIONS",NA,"GENERAL DISORDERS AND ADMINISTRATION SITE CONDITIONS",10018065,"Mild Adverse Event","No","Probably Related",NA,"No","No","No","No","No","No","No","12/13/2012","12/05/2012","12/16/2012"
"CDISCPILOT01","701-1192","AE","Adverse Events","Application Site Irritation","Recovered/Resolved","APPLICATION SITE BURNING",10048942,"APPLICATION SITE IRRITATION",NA,"HLT_0061",NA,"HLGT_0346",NA,"GENERAL DISORDERS AND ADMINISTRATION SITE CONDITIONS",NA,"GENERAL DISORDERS AND ADMINISTRATION SITE CONDITIONS",10018065,"Mild Adverse Event","No","Probably Related",NA,"No","No","No","No","No","No","No","01/11/2013","12/05/2012","12/16/2012"
"CDISCPILOT01","701-1192","AE","Adverse Events","Application Site Pruritus","Not Recovered/not Resolved","APPLICATION SITE ITCHING",10003047,"APPLICATION SITE PRURITUS",NA,"HLT_0317",NA,"HLGT_0338",NA,"GENERAL DISORDERS AND ADMINISTRATION SITE CONDITIONS",NA,"GENERAL DISORDERS AND ADMINISTRATION SITE CONDITIONS",10018065,"Mild Adverse Event","No","Probably Related",NA,"No","No","No","No","No","No","No","12/13/2012","12/05/2012",NA
"CDISCPILOT01","701-1192","AE","Adverse Events","Cough","Not Recovered/not Resolved","COUGH",10011224,"COUGH",NA,"HLT_0701",NA,"HLGT_0280",NA,"RESPIRATORY, THORACIC AND MEDIASTINAL DISORDERS",NA,"RESPIRATORY, THORACIC AND MEDIASTINAL DISORDERS",10038738,"Moderate Adverse Event","No","Not Related",NA,"No","No","No","No","No","No","No","09/23/2012",NA,NA
"CDISCPILOT01","701-1192","AE","Adverse Events","Cough","Not Recovered/not Resolved","COUGH",10011224,"COUGH",NA,"HLT_0701",NA,"HLGT_0280",NA,"RESPIRATORY, THORACIC AND MEDIASTINAL DISORDERS",NA,"RESPIRATORY, THORACIC AND MEDIASTINAL DISORDERS",10038738,"Mild Adverse Event","No","Not Related",NA,"No","No","No","No","No","No","No","10/14/2012",NA,NA
"CDISCPILOT01","701-1192","AE","Adverse Events","Erythema","Not Recovered/not Resolved","ERYTHEMA FACIAL",10015212,"ERYTHEMA",NA,"HLT_0284",NA,"HLGT_0192",NA,"SKIN AND SUBCUTANEOUS TISSUE DISORDERS",NA,"SKIN AND SUBCUTANEOUS TISSUE DISORDERS",10040785,"Mild Adverse Event","No","Not Related",NA,"No","No","No","No","No","No","No","08/07/2012","08/07/2012","09/14/2012"
"CDISCPILOT01","701-1192","AE","Adverse Events","Erythema","Recovered/Resolved","ERYTHEMA FACIAL",10015212,"ERYTHEMA",NA,"HLT_0284",NA,"HLGT_0192",NA,"SKIN AND SUBCUTANEOUS TISSUE DISORDERS",NA,"SKIN AND SUBCUTANEOUS TISSUE DISORDERS",10040785,"Mild Adverse Event","No","Not Related",NA,"No","No","No","No","No","No","No","09/23/2012","08/07/2012","09/14/2012"
"CDISCPILOT01","701-1192","AE","Adverse Events","Muscular Weakness","Not Recovered/not Resolved","MUSCULAR WEAKNESS",10028372,"MUSCULAR WEAKNESS",NA,"HLT_0444",NA,"HLGT_0211",NA,"MUSCULOSKELETAL AND CONNECTIVE TISSUE DISORDERS",NA,"MUSCULOSKELETAL AND CONNECTIVE TISSUE DISORDERS",10028395,"Moderate Adverse Event","No","Not Related",NA,"No","No","No","No","No","No","No","09/23/2012","09/07/2012","09/30/2012"
"CDISCPILOT01","701-1192","AE","Adverse Events","Muscular Weakness","Recovered/Resolved","MUSCULAR WEAKNESS",10028372,"MUSCULAR WEAKNESS",NA,"HLT_0444",NA,"HLGT_0211",NA,"MUSCULOSKELETAL AND CONNECTIVE TISSUE DISORDERS",NA,"MUSCULOSKELETAL AND CONNECTIVE TISSUE DISORDERS",10028395,"Moderate Adverse Event","No","Not Related",NA,"No","No","No","No","No","No","No","10/14/2012","09/07/2012","09/30/2012"
"CDISCPILOT01","701-1192","AE","Adverse Events","Nasal Mucosa Biopsy","Recovered/Resolved","NASAL MUCOSA BIOPSY",10057443,"NASAL MUCOSA BIOPSY",NA,"HLT_0680",NA,"HLGT_0396",NA,"INVESTIGATIONS",NA,"INVESTIGATIONS",10022891,"Mild Adverse Event","No","Not Related",NA,"No","No","No","No","No","No","No","08/07/2012","08/03/2012","08/03/2012"
"CDISCPILOT01","701-1192","AE","Adverse Events","Pneumonia","Not Recovered/not Resolved","PNEUMONIA",10035664,"PNEUMONIA",NA,"HLT_0251",NA,"HLGT_0671",NA,"INFECTIONS AND INFESTATIONS",NA,"INFECTIONS AND INFESTATIONS",10021881,"Moderate Adverse Event","No","Not Related",NA,"No","No","No","No","Yes","No","No","09/23/2012","09/07/2012","10/06/2012"
"CDISCPILOT01","701-1192","AE","Adverse Events","Pneumonia","Recovered/Resolved","PNEUMONIA",10035664,"PNEUMONIA",NA,"HLT_0251",NA,"HLGT_0671",NA,"INFECTIONS AND INFESTATIONS",NA,"INFECTIONS AND INFESTATIONS",10021881,"Moderate Adverse Event","No","Not Related",NA,"No","No","No","No","Yes","No","No","10/14/2012","09/07/2012","10/06/2012"
"CDISCPILOT01","701-1192","AE","Adverse Events","Secretion Discharge","Not Recovered/not Resolved","SECRETION DISCHARGE",10053459,"SECRETION DISCHARGE",NA,"HLT_0683",NA,"HLGT_0575",NA,"GENERAL DISORDERS AND ADMINISTRATION SITE CONDITIONS",NA,"GENERAL DISORDERS AND ADMINISTRATION SITE CONDITIONS",10018065,"Mild Adverse Event","No","Not Related",NA,"No","No","No","No","No","No","No","08/07/2012","08/07/2012","09/14/2012"
"CDISCPILOT01","701-1192","AE","Adverse Events","Secretion Discharge","Recovered/Resolved","SECRETION DISCHARGE",10053459,"SECRETION DISCHARGE",NA,"HLT_0683",NA,"HLGT_0575",NA,"GENERAL DISORDERS AND ADMINISTRATION SITE CONDITIONS",NA,"GENERAL DISORDERS AND ADMINISTRATION SITE CONDITIONS",10018065,"Mild Adverse Event","No","Not Related",NA,"No","No","No","No","No","No","No","09/23/2012","08/07/2012","09/14/2012"
"CDISCPILOT01","701-1203","AE","Adverse Events","Eye Laser Surgery","Recovered/Resolved","EYE LASER SURGERY",10057105,"EYE LASER SURGERY",NA,"HLT_0355",NA,"HLGT_0189",NA,"SURGICAL AND MEDICAL PROCEDURES",NA,"SURGICAL AND MEDICAL PROCEDURES",10042613,"Mild Adverse Event","No","Not Related",NA,"No","No","No","No","No","No","No","03/30/2013","03/21/2013","03/21/2013"
"CDISCPILOT01","701-1211","AE","Adverse Events","Application Site Erythema","Not Recovered/not Resolved","APPLICATION SITE REDNESS",10003058,"APPLICATION SITE ERYTHEMA",NA,"HLT_0617",NA,"HLGT_0152",NA,"GENERAL DISORDERS AND ADMINISTRATION SITE CONDITIONS",NA,"GENERAL DISORDERS AND ADMINISTRATION SITE CONDITIONS",10018065,"Mild Adverse Event","No","Possibly Related",NA,"No","No","No","No","No","No","No","12/11/2012","11/29/2012",NA
"CDISCPILOT01","701-1211","AE","Adverse Events","Application Site Pruritus","Not Recovered/not Resolved","APPLICATION SITE ITCHING",10003047,"APPLICATION SITE PRURITUS",NA,"HLT_0317",NA,"HLGT_0338",NA,"GENERAL DISORDERS AND ADMINISTRATION SITE CONDITIONS",NA,"GENERAL DISORDERS AND ADMINISTRATION SITE CONDITIONS",10018065,"Mild Adverse Event","No","Possibly Related",NA,"No","No","No","No","No","No","No","11/28/2012","11/16/2012",NA
"CDISCPILOT01","701-1211","AE","Adverse Events","Confusional State","Not Recovered/not Resolved","CONFUSION",10010300,"CONFUSIONAL STATE",NA,"HLT_0642",NA,"HLGT_0329",NA,"PSYCHIATRIC DISORDERS",NA,"PSYCHIATRIC DISORDERS",10037175,"Moderate Adverse Event","No","Not Related",NA,"No","No","No","No","No","No","No","01/14/2013","01/11/2013",NA
"CDISCPILOT01","701-1211","AE","Adverse Events","Dyspnoea","Not Recovered/not Resolved","SHORTNESS OF BREATH",10040604,"DYSPNOEA",NA,"HLT_0296",NA,"HLGT_0255",NA,"RESPIRATORY, THORACIC AND MEDIASTINAL DISORDERS",NA,"RESPIRATORY, THORACIC AND MEDIASTINAL DISORDERS",10038738,"Moderate Adverse Event","No","Not Related",NA,"No","No","No","No","No","No","No","01/14/2013","01/11/2013",NA
"CDISCPILOT01","701-1211","AE","Adverse Events","Incontinence","Not Recovered/not Resolved","INCONTINENCE",10021639,"INCONTINENCE",NA,"HLT_0560",NA,"HLGT_0503",NA,"RENAL AND URINARY DISORDERS",NA,"RENAL AND URINARY DISORDERS",10038359,"Mild Adverse Event","No","Not Related",NA,"No","No","No","No","No","No","No","11/28/2012","11/22/2012",NA
"CDISCPILOT01","701-1211","AE","Adverse Events","Joint Dislocation","Recovered/Resolved","SHOULDER DISLOCATION",10040612,"JOINT DISLOCATION",NA,"HLT_0035",NA,"HLGT_0227",NA,"INJURY, POISONING AND PROCEDURAL COMPLICATIONS",NA,"INJURY, POISONING AND PROCEDURAL COMPLICATIONS",10022117,"Moderate Adverse Event","No","Not Related",NA,"No","No","No","No","No","No","No","11/28/2012","11/21/2012","11/21/2012"
"CDISCPILOT01","701-1211","AE","Adverse Events","Shoulder Pain","Not Recovered/not Resolved","SHOULDER PAIN",10040617,"SHOULDER PAIN",NA,"HLT_0527",NA,"HLGT_0288",NA,"MUSCULOSKELETAL AND CONNECTIVE TISSUE DISORDERS",NA,"MUSCULOSKELETAL AND CONNECTIVE TISSUE DISORDERS",10028395,"Mild Adverse Event","No","Not Related",NA,"No","No","No","No","No","No","No","11/28/2012","11/21/2012",NA
"CDISCPILOT01","701-1211","AE","Adverse Events","Skin Laceration","Not Recovered/not Resolved","LACERATION OF FACE",10023584,"SKIN LACERATION",NA,"HLT_0075",NA,"HLGT_0118",NA,"INJURY, POISONING AND PROCEDURAL COMPLICATIONS",NA,"INJURY, POISONING AND PROCEDURAL COMPLICATIONS",10022117,"Mild Adverse Event","No","Not Related",NA,"No","No","No","No","No","No","No","12/11/2012","12/09/2012",NA
"CDISCPILOT01","701-1211","AE","Adverse Events","Sudden Death","Fatal","SUDDEN DEATH",10042434,"SUDDEN DEATH",NA,"HLT_0142",NA,"HLGT_0272",NA,"GENERAL DISORDERS AND ADMINISTRATION SITE CONDITIONS",NA,"GENERAL DISORDERS AND ADMINISTRATION SITE CONDITIONS",10018065,"Severe Adverse Event","No","Not Related",NA,"No","No","No","Yes","No","Yes","No","01/14/2013","01/14/2013","01/14/2013"
"CDISCPILOT01","701-1239","AE","Adverse Events","Application Site Irritation","Not Recovered/not Resolved","APPLICATION SITE IRRITATION",10003046,"APPLICATION SITE IRRITATION",NA,"HLT_0061",NA,"HLGT_0346",NA,"GENERAL DISORDERS AND ADMINISTRATION SITE CONDITIONS",NA,"GENERAL DISORDERS AND ADMINISTRATION SITE CONDITIONS",10018065,"Mild Adverse Event","No","Probably Related",NA,"No","No","No","No","No","No","No","01/25/2014","01/20/2014","02/08/2014"
"CDISCPILOT01","701-1239","AE","Adverse Events","Application Site Irritation","Recovered/Resolved","APPLICATION SITE IRRITATION",10003046,"APPLICATION SITE IRRITATION",NA,"HLT_0061",NA,"HLGT_0346",NA,"GENERAL DISORDERS AND ADMINISTRATION SITE CONDITIONS",NA,"GENERAL DISORDERS AND ADMINISTRATION SITE CONDITIONS",10018065,"Mild Adverse Event","No","Probably Related",NA,"No","No","No","No","No","No","No","02/10/2014","01/20/2014","02/08/2014"
"CDISCPILOT01","701-1239","AE","Adverse Events","Erythema","Not Recovered/not Resolved","ERYTHEMA",10015150,"ERYTHEMA",NA,"HLT_0284",NA,"HLGT_0192",NA,"SKIN AND SUBCUTANEOUS TISSUE DISORDERS",NA,"SKIN AND SUBCUTANEOUS TISSUE DISORDERS",10040785,"Mild Adverse Event","No","Possibly Related",NA,"No","No","No","No","No","No","No","01/25/2014","01/12/2014",NA
"CDISCPILOT01","701-1239","AE","Adverse Events","Erythema","Not Recovered/not Resolved","ERYTHEMA",10015150,"ERYTHEMA",NA,"HLT_0284",NA,"HLGT_0192",NA,"SKIN AND SUBCUTANEOUS TISSUE DISORDERS",NA,"SKIN AND SUBCUTANEOUS TISSUE DISORDERS",10040785,"Moderate Adverse Event","No","Possibly Related",NA,"No","No","No","No","No","No","No","02/19/2014","01/12/2014",NA
"CDISCPILOT01","701-1239","AE","Adverse Events","Fatigue","Not Recovered/not Resolved","FATIGUE",10016256,"FATIGUE",NA,"HLT_0043",NA,"HLGT_0181",NA,"GENERAL DISORDERS AND ADMINISTRATION SITE CONDITIONS",NA,"GENERAL DISORDERS AND ADMINISTRATION SITE CONDITIONS",10018065,"Mild Adverse Event","No","Remote",NA,"No","No","No","No","No","No","No","04/02/2014",NA,NA
"CDISCPILOT01","701-1239","AE","Adverse Events","Hordeolum","Not Recovered/not Resolved","STYE",10042269,"HORDEOLUM",NA,"HLT_0604",NA,"HLGT_0290",NA,"INFECTIONS AND INFESTATIONS",NA,"INFECTIONS AND INFESTATIONS",10021881,"Mild Adverse Event","No","Not Related",NA,"No","No","No","No","No","No","No","05/02/2014",NA,NA
"CDISCPILOT01","701-1239","AE","Adverse Events","Pruritus","Not Recovered/not Resolved","ITCHING",10023084,"PRURITUS",NA,"HLT_0778",NA,"HLGT_0695",NA,"SKIN AND SUBCUTANEOUS TISSUE DISORDERS",NA,"SKIN AND SUBCUTANEOUS TISSUE DISORDERS",10040785,"Mild Adverse Event","No","Possibly Related",NA,"No","No","No","No","No","No","No","01/25/2014","01/13/2014",NA
"CDISCPILOT01","701-1239","AE","Adverse Events","Skin Odour Abnormal","Not Recovered/not Resolved","SKIN ODOR ABNORMAL",10040903,"SKIN ODOUR ABNORMAL",NA,"HLT_0510",NA,"HLGT_0184",NA,"SKIN AND SUBCUTANEOUS TISSUE DISORDERS",NA,"SKIN AND SUBCUTANEOUS TISSUE DISORDERS",10040785,"Mild Adverse Event","No","Remote",NA,"No","No","No","No","No","No","No","01/25/2014","01/12/2014",NA
"CDISCPILOT01","701-1239","AE","Adverse Events","Upper Respiratory Tract Infection","Not Recovered/not Resolved","UPPER RESPIRATORY INFECTION",10046300,"UPPER RESPIRATORY TRACT INFECTION",NA,"HLT_0520",NA,"HLGT_0489",NA,"INFECTIONS AND INFESTATIONS",NA,"INFECTIONS AND INFESTATIONS",10021881,"Mild Adverse Event","No","Not Related",NA,"No","No","No","No","No","No","No","03/06/2014","02/20/2014","03/12/2014"
"CDISCPILOT01","701-1239","AE","Adverse Events","Upper Respiratory Tract Infection","Recovered/Resolved","UPPER RESPIRATORY INFECTION",10046300,"UPPER RESPIRATORY TRACT INFECTION",NA,"HLT_0520",NA,"HLGT_0489",NA,"INFECTIONS AND INFESTATIONS",NA,"INFECTIONS AND INFESTATIONS",10021881,"Mild Adverse Event","No","Not Related",NA,"No","No","No","No","No","No","No","04/02/2014","02/20/2014","03/12/2014"
"CDISCPILOT01","701-1275","AE","Adverse Events","Cough","Not Recovered/not Resolved","COUGH",10011224,"COUGH",NA,"HLT_0701",NA,"HLGT_0280",NA,"RESPIRATORY, THORACIC AND MEDIASTINAL DISORDERS",NA,"RESPIRATORY, THORACIC AND MEDIASTINAL DISORDERS",10038738,"Mild Adverse Event","No","Not Related",NA,"No","No","No","No","No","No","No","03/22/2014","03/12/2014","03/27/2014"
"CDISCPILOT01","701-1275","AE","Adverse Events","Cough","Recovered/Resolved","COUGH",10011224,"COUGH",NA,"HLT_0701",NA,"HLGT_0280",NA,"RESPIRATORY, THORACIC AND MEDIASTINAL DISORDERS",NA,"RESPIRATORY, THORACIC AND MEDIASTINAL DISORDERS",10038738,"Mild Adverse Event","No","Not Related",NA,"No","No","No","No","No","No","No","04/05/2014","03/12/2014","03/27/2014"
"CDISCPILOT01","701-1275","AE","Adverse Events","Erythema","Not Recovered/not Resolved","ERYTHEMA",10015150,"ERYTHEMA",NA,"HLT_0284",NA,"HLGT_0192",NA,"SKIN AND SUBCUTANEOUS TISSUE DISORDERS",NA,"SKIN AND SUBCUTANEOUS TISSUE DISORDERS",10040785,"Mild Adverse Event","No","Possibly Related",NA,"No","No","No","No","No","No","No","03/07/2014","02/24/2014","06/12/2014"
"CDISCPILOT01","701-1275","AE","Adverse Events","Erythema","Recovered/Resolved","ERYTHEMA",10015150,"ERYTHEMA",NA,"HLT_0284",NA,"HLGT_0192",NA,"SKIN AND SUBCUTANEOUS TISSUE DISORDERS",NA,"SKIN AND SUBCUTANEOUS TISSUE DISORDERS",10040785,"Mild Adverse Event","No","Possibly Related",NA,"No","No","No","No","No","No","No","06/14/2014","02/24/2014","06/12/2014"
"CDISCPILOT01","701-1275","AE","Adverse Events","Nasal Congestion","Not Recovered/not Resolved","NASAL CONGESTION",10028735,"NASAL CONGESTION",NA,"HLT_0118",NA,"HLGT_0549",NA,"RESPIRATORY, THORACIC AND MEDIASTINAL DISORDERS",NA,"RESPIRATORY, THORACIC AND MEDIASTINAL DISORDERS",10038738,"Mild Adverse Event","No","Not Related",NA,"No","No","No","No","No","No","No","03/22/2014","03/12/2014","03/27/2014"
"CDISCPILOT01","701-1275","AE","Adverse Events","Nasal Congestion","Recovered/Resolved","NASAL CONGESTION",10028735,"NASAL CONGESTION",NA,"HLT_0118",NA,"HLGT_0549",NA,"RESPIRATORY, THORACIC AND MEDIASTINAL DISORDERS",NA,"RESPIRATORY, THORACIC AND MEDIASTINAL DISORDERS",10038738,"Mild Adverse Event","No","Not Related",NA,"No","No","No","No","No","No","No","04/05/2014","03/12/2014","03/27/2014"
"CDISCPILOT01","701-1275","AE","Adverse Events","Nausea","Not Recovered/not Resolved","NAUSEA",10028813,"NAUSEA",NA,"HLT_0742",NA,"HLGT_0326",NA,"GASTROINTESTINAL DISORDERS",NA,"GASTROINTESTINAL DISORDERS",10017947,"Mild Adverse Event","No","Possibly Related",NA,"No","No","No","No","No","No","No","02/22/2014","02/13/2014","06/03/2014"
"CDISCPILOT01","701-1275","AE","Adverse Events","Nausea","Recovered/Resolved","NAUSEA",10028813,"NAUSEA",NA,"HLT_0742",NA,"HLGT_0326",NA,"GASTROINTESTINAL DISORDERS",NA,"GASTROINTESTINAL DISORDERS",10017947,"Mild Adverse Event","No","Possibly Related",NA,"No","No","No","No","No","No","No","06/14/2014","02/13/2014","06/03/2014"
"CDISCPILOT01","701-1275","AE","Adverse Events","Parosmia","Not Recovered/not Resolved","STRANGE SMELL SENSATION",10042165,"PAROSMIA",NA,"HLT_0258",NA,"HLGT_0471",NA,"NERVOUS SYSTEM DISORDERS",NA,"NERVOUS SYSTEM DISORDERS",10029205,"Mild Adverse Event","No","Possibly Related",NA,"No","No","No","No","No","No","No","03/07/2014","02/24/2014","06/03/2014"
"CDISCPILOT01","701-1275","AE","Adverse Events","Parosmia","Recovered/Resolved","STRANGE SMELL SENSATION",10042165,"PAROSMIA",NA,"HLT_0258",NA,"HLGT_0471",NA,"NERVOUS SYSTEM DISORDERS",NA,"NERVOUS SYSTEM DISORDERS",10029205,"Mild Adverse Event","No","Possibly Related",NA,"No","No","No","No","No","No","No","06/14/2014","02/24/2014","06/03/2014"
"CDISCPILOT01","701-1275","AE","Adverse Events","Pruritus","Not Recovered/not Resolved","ITCHING",10023084,"PRURITUS",NA,"HLT_0778",NA,"HLGT_0695",NA,"SKIN AND SUBCUTANEOUS TISSUE DISORDERS",NA,"SKIN AND SUBCUTANEOUS TISSUE DISORDERS",10040785,"Mild Adverse Event","No","Possibly Related",NA,"No","No","No","No","No","No","No","03/07/2014","02/24/2014","06/12/2014"
"CDISCPILOT01","701-1275","AE","Adverse Events","Pruritus","Recovered/Resolved","ITCHING",10023084,"PRURITUS",NA,"HLT_0778",NA,"HLGT_0695",NA,"SKIN AND SUBCUTANEOUS TISSUE DISORDERS",NA,"SKIN AND SUBCUTANEOUS TISSUE DISORDERS",10040785,"Mild Adverse Event","No","Possibly Related",NA,"No","No","No","No","No","No","No","06/14/2014","02/24/2014","06/12/2014"
"CDISCPILOT01","701-1275","AE","Adverse Events","Salivary Hypersecretion","Not Recovered/not Resolved","HYPERSALIVATION",10020746,"SALIVARY HYPERSECRETION",NA,"HLT_0374",NA,"HLGT_0488",NA,"GASTROINTESTINAL DISORDERS",NA,"GASTROINTESTINAL DISORDERS",10017947,"Mild Adverse Event","No","Possibly Related",NA,"No","No","No","No","No","No","No","03/07/2014","02/24/2014","06/03/2014"
"CDISCPILOT01","701-1275","AE","Adverse Events","Salivary Hypersecretion","Recovered/Resolved","HYPERSALIVATION",10020746,"SALIVARY HYPERSECRETION",NA,"HLT_0374",NA,"HLGT_0488",NA,"GASTROINTESTINAL DISORDERS",NA,"GASTROINTESTINAL DISORDERS",10017947,"Mild Adverse Event","No","Possibly Related",NA,"No","No","No","No","No","No","No","06/14/2014","02/24/2014","06/03/2014"
"CDISCPILOT01","701-1275","AE","Adverse Events","Vomiting","Recovered/Resolved","VOMITING",10047700,"VOMITING",NA,"HLT_0016",NA,"HLGT_0350",NA,"GASTROINTESTINAL DISORDERS",NA,"GASTROINTESTINAL DISORDERS",10017947,"Mild Adverse Event","No","Possibly Related",NA,"No","No","No","No","No","No","No","03/07/2014","02/23/2014","02/23/2014"
"CDISCPILOT01","701-1287","AE","Adverse Events","Application Site Erythema","Not Recovered/not Resolved","APPLICATION SITE REDNESS",10003058,"APPLICATION SITE ERYTHEMA",NA,"HLT_0617",NA,"HLGT_0152",NA,"GENERAL DISORDERS AND ADMINISTRATION SITE CONDITIONS",NA,"GENERAL DISORDERS AND ADMINISTRATION SITE CONDITIONS",10018065,"Mild Adverse Event","No","Probably Related",NA,"No","No","No","No","No","No","No","03/21/2014","03/09/2014",NA
"CDISCPILOT01","701-1287","AE","Adverse Events","Application Site Pruritus","Not Recovered/not Resolved","APPLICATION SITE ITCHING",10003047,"APPLICATION SITE PRURITUS",NA,"HLT_0317",NA,"HLGT_0338",NA,"GENERAL DISORDERS AND ADMINISTRATION SITE CONDITIONS",NA,"GENERAL DISORDERS AND ADMINISTRATION SITE CONDITIONS",10018065,"Mild Adverse Event","No","Possibly Related",NA,"No","No","No","No","No","No","No","03/06/2014","02/22/2014",NA
"CDISCPILOT01","701-1287","AE","Adverse Events","Rhinorrhoea","Not Recovered/not Resolved","RUNNY NOSE",10039296,"RHINORRHOEA",NA,"HLT_0635",NA,"HLGT_0460",NA,"RESPIRATORY, THORACIC AND MEDIASTINAL DISORDERS",NA,"RESPIRATORY, THORACIC AND MEDIASTINAL DISORDERS",10038738,"Mild Adverse Event","No","Not Related",NA,"No","No","No","No","No","No","No","07/12/2014","07/09/2014","07/12/2014"
"CDISCPILOT01","701-1287","AE","Adverse Events","Rhinorrhoea","Recovered/Resolved","RUNNY NOSE",10039296,"RHINORRHOEA",NA,"HLT_0635",NA,"HLGT_0460",NA,"RESPIRATORY, THORACIC AND MEDIASTINAL DISORDERS",NA,"RESPIRATORY, THORACIC AND MEDIASTINAL DISORDERS",10038738,"Mild Adverse Event","No","Not Related",NA,"No","No","No","No","No","No","No","07/26/2014","07/09/2014","07/12/2014"
"CDISCPILOT01","701-1287","AE","Adverse Events","Salivary Hypersecretion","Not Recovered/not Resolved","INCREASED SALIVATION",10021677,"SALIVARY HYPERSECRETION",NA,"HLT_0374",NA,"HLGT_0488",NA,"GASTROINTESTINAL DISORDERS",NA,"GASTROINTESTINAL DISORDERS",10017947,"Mild Adverse Event","No","Not Related",NA,"No","No","No","No","No","No","No","02/11/2014","01/26/2014",NA
"CDISCPILOT01","701-1294","AE","Adverse Events","Application Site Erythema","Not Recovered/not Resolved","APPLICATION SITE REDNESS",10003058,"APPLICATION SITE ERYTHEMA",NA,"HLT_0617",NA,"HLGT_0152",NA,"GENERAL DISORDERS AND ADMINISTRATION SITE CONDITIONS",NA,"GENERAL DISORDERS AND ADMINISTRATION SITE CONDITIONS",10018065,"Mild Adverse Event","No","Probably Related",NA,"No","No","No","No","No","No","No","05/22/2013","05/19/2013",NA
"CDISCPILOT01","701-1294","AE","Adverse Events","Application Site Erythema","Not Recovered/not Resolved","APPLICATION SITE REDNESS",10003058,"APPLICATION SITE ERYTHEMA",NA,"HLT_0617",NA,"HLGT_0152",NA,"GENERAL DISORDERS AND ADMINISTRATION SITE CONDITIONS",NA,"GENERAL DISORDERS AND ADMINISTRATION SITE CONDITIONS",10018065,"Moderate Adverse Event","No","Probably Related",NA,"No","No","No","No","No","No","No","06/14/2013","05/19/2013",NA
"CDISCPILOT01","701-1294","AE","Adverse Events","Application Site Pruritus","Recovered/Resolved","APPLICATION SITE ITCHING",10003047,"APPLICATION SITE PRURITUS",NA,"HLT_0317",NA,"HLGT_0338",NA,"GENERAL DISORDERS AND ADMINISTRATION SITE CONDITIONS",NA,"GENERAL DISORDERS AND ADMINISTRATION SITE CONDITIONS",10018065,"Moderate Adverse Event","No","Not Related",NA,"No","No","No","No","No","No","No","03/24/2013","03/22/2013","03/23/2013"
"CDISCPILOT01","701-1294","AE","Adverse Events","Application Site Pruritus","Not Recovered/not Resolved","APPLICATION SITE ITCHING",10003047,"APPLICATION SITE PRURITUS",NA,"HLT_0317",NA,"HLGT_0338",NA,"GENERAL DISORDERS AND ADMINISTRATION SITE CONDITIONS",NA,"GENERAL DISORDERS AND ADMINISTRATION SITE CONDITIONS",10018065,"Mild Adverse Event","No","Possibly Related",NA,"No","No","No","No","No","No","No","05/22/2013","05/19/2013",NA
"CDISCPILOT01","701-1294","AE","Adverse Events","Application Site Pruritus","Not Recovered/not Resolved","APPLICATION SITE ITCHING",10003047,"APPLICATION SITE PRURITUS",NA,"HLT_0317",NA,"HLGT_0338",NA,"GENERAL DISORDERS AND ADMINISTRATION SITE CONDITIONS",NA,"GENERAL DISORDERS AND ADMINISTRATION SITE CONDITIONS",10018065,"Moderate Adverse Event","No","Possibly Related",NA,"No","No","No","No","No","No","No","06/14/2013","05/19/2013",NA
"CDISCPILOT01","701-1294","AE","Adverse Events","Rash Erythematous","Not Recovered/not Resolved","ERYTHEMATOUS RASH",10015243,"RASH ERYTHEMATOUS",NA,"HLT_0336",NA,"HLGT_0701",NA,"SKIN AND SUBCUTANEOUS TISSUE DISORDERS",NA,"SKIN AND SUBCUTANEOUS TISSUE DISORDERS",10040785,"Moderate Adverse Event","No","Probably Related",NA,"No","No","No","No","No","No","No","06/14/2013","06/10/2013",NA
"CDISCPILOT01","701-1302","AE","Adverse Events","Application Site Erythema","Not Recovered/not Resolved","APPLICATION SITE REDNESS",10003058,"APPLICATION SITE ERYTHEMA",NA,"HLT_0617",NA,"HLGT_0152",NA,"GENERAL DISORDERS AND ADMINISTRATION SITE CONDITIONS",NA,"GENERAL DISORDERS AND ADMINISTRATION SITE CONDITIONS",10018065,"Mild Adverse Event","No","Probably Related",NA,"No","No","No","No","No","No","No","10/22/2013","10/15/2013",NA
"CDISCPILOT01","701-1302","AE","Adverse Events","Application Site Perspiration","Not Recovered/not Resolved","APPLICATION SITE PERSPIRATION",10054838,"APPLICATION SITE PERSPIRATION",NA,"HLT_0283",NA,"HLGT_0403",NA,"GENERAL DISORDERS AND ADMINISTRATION SITE CONDITIONS",NA,"GENERAL DISORDERS AND ADMINISTRATION SITE CONDITIONS",10018065,"Mild Adverse Event","No","Possibly Related",NA,"No","No","No","No","No","No","No","09/15/2013","08/30/2013",NA
"CDISCPILOT01","701-1302","AE","Adverse Events","Application Site Pruritus","Not Recovered/not Resolved","APPLICATION SITE ITCHING",10003047,"APPLICATION SITE PRURITUS",NA,"HLT_0317",NA,"HLGT_0338",NA,"GENERAL DISORDERS AND ADMINISTRATION SITE CONDITIONS",NA,"GENERAL DISORDERS AND ADMINISTRATION SITE CONDITIONS",10018065,"Mild Adverse Event","No","Probably Related",NA,"No","No","No","No","No","No","No","10/22/2013","10/15/2013",NA
"CDISCPILOT01","701-1302","AE","Adverse Events","Contusion","Not Recovered/not Resolved","BRUISE",10006502,"CONTUSION",NA,"HLT_0713",NA,"HLGT_0381",NA,"INJURY, POISONING AND PROCEDURAL COMPLICATIONS",NA,"INJURY, POISONING AND PROCEDURAL COMPLICATIONS",10022117,"Mild Adverse Event","No","Remote",NA,"No","No","No","No","No","No","No","09/15/2013","09/05/2013","10/08/2013"
"CDISCPILOT01","701-1302","AE","Adverse Events","Contusion","Recovered/Resolved","BRUISE",10006502,"CONTUSION",NA,"HLT_0713",NA,"HLGT_0381",NA,"INJURY, POISONING AND PROCEDURAL COMPLICATIONS",NA,"INJURY, POISONING AND PROCEDURAL COMPLICATIONS",10022117,"Mild Adverse Event","No","Remote",NA,"No","No","No","No","No","No","No","10/22/2013","09/05/2013","10/08/2013"
"CDISCPILOT01","701-1302","AE","Adverse Events","Dizziness","Recovered/Resolved","DIZZY",10013580,"DIZZINESS",NA,"HLT_0619",NA,"HLGT_0751",NA,"NERVOUS SYSTEM DISORDERS",NA,"NERVOUS SYSTEM DISORDERS",10029205,"Moderate Adverse Event","No","Remote",NA,"No","No","No","No","No","No","No","09/15/2013","09/02/2013","09/03/2013"
"CDISCPILOT01","701-1302","AE","Adverse Events","Dizziness","Not Recovered/not Resolved","LIGHTHEADEDNESS",10024492,"DIZZINESS",NA,"HLT_0619",NA,"HLGT_0751",NA,"NERVOUS SYSTEM DISORDERS",NA,"NERVOUS SYSTEM DISORDERS",10029205,"Mild Adverse Event","No","Possibly Related",NA,"No","No","No","No","No","No","No","09/15/2013","09/04/2013",NA
"CDISCPILOT01","701-1302","AE","Adverse Events","Epistaxis","Not Recovered/not Resolved","NOSE BLEED",10029792,"EPISTAXIS",NA,"HLT_0386",NA,"HLGT_0577",NA,"RESPIRATORY, THORACIC AND MEDIASTINAL DISORDERS",NA,"RESPIRATORY, THORACIC AND MEDIASTINAL DISORDERS",10038738,"Mild Adverse Event","No","Remote",NA,"No","No","No","No","No","No","No","10/08/2013","09/30/2013",NA
"CDISCPILOT01","701-1302","AE","Adverse Events","Feeling Abnormal","Not Recovered/not Resolved","FOGGY FEELING IN HEAD",10016876,"FEELING ABNORMAL",NA,"HLT_0524",NA,"HLGT_0749",NA,"GENERAL DISORDERS AND ADMINISTRATION SITE CONDITIONS",NA,"GENERAL DISORDERS AND ADMINISTRATION SITE CONDITIONS",10018065,"Mild Adverse Event","No","Possibly Related",NA,"No","No","No","No","No","No","No","11/05/2013","10/24/2013",NA
"CDISCPILOT01","701-1302","AE","Adverse Events","Headache","Not Recovered/not Resolved","HEADACHE",10019211,"HEADACHE",NA,"HLT_0064",NA,"HLGT_0344",NA,"NERVOUS SYSTEM DISORDERS",NA,"NERVOUS SYSTEM DISORDERS",10029205,"Mild Adverse Event","No","Not Related",NA,"No","No","No","No","No","No","No","09/15/2013","09/15/2013",NA
"CDISCPILOT01","701-1302","AE","Adverse Events","Hyperhidrosis","Not Recovered/not Resolved","PERSPIRATION EXCESSIVE",10034734,"HYPERHIDROSIS",NA,"HLT_0587",NA,"HLGT_0005",NA,"SKIN AND SUBCUTANEOUS TISSUE DISORDERS",NA,"SKIN AND SUBCUTANEOUS TISSUE DISORDERS",10040785,"Mild Adverse Event","No","Possibly Related",NA,"No","No","No","No","No","No","No","09/15/2013","08/30/2013",NA
"CDISCPILOT01","701-1302","AE","Adverse Events","Libido Decreased","Not Recovered/not Resolved","LIBIDO DECREASED",10024419,"LIBIDO DECREASED",NA,"HLT_0338",NA,"HLGT_0496",NA,"PSYCHIATRIC DISORDERS",NA,"PSYCHIATRIC DISORDERS",10037175,"Mild Adverse Event","No","Possibly Related",NA,"No","No","No","No","No","No","No","11/05/2013","10/24/2013",NA
"CDISCPILOT01","701-1302","AE","Adverse Events","Listless","Not Recovered/not Resolved","LISTLESSNESS",10024643,"LISTLESS",NA,"HLT_0657",NA,"HLGT_0124",NA,"PSYCHIATRIC DISORDERS",NA,"PSYCHIATRIC DISORDERS",10037175,"Mild Adverse Event","No","Possibly Related",NA,"No","No","No","No","No","No","No","11/05/2013","10/24/2013",NA
"CDISCPILOT01","701-1302","AE","Adverse Events","Malaise","Not Recovered/not Resolved","MALAISE",10025482,"MALAISE",NA,"HLT_0456",NA,"HLGT_0178",NA,"GENERAL DISORDERS AND ADMINISTRATION SITE CONDITIONS",NA,"GENERAL DISORDERS AND ADMINISTRATION SITE CONDITIONS",10018065,"Mild Adverse Event","No","Remote",NA,"No","No","No","No","No","No","No","09/15/2013","09/02/2013",NA
"CDISCPILOT01","701-1302","AE","Adverse Events","Malaise","Not Recovered/not Resolved","MALAISE",10025482,"MALAISE",NA,"HLT_0456",NA,"HLGT_0178",NA,"GENERAL DISORDERS AND ADMINISTRATION SITE CONDITIONS",NA,"GENERAL DISORDERS AND ADMINISTRATION SITE CONDITIONS",10018065,"Moderate Adverse Event","No","Remote",NA,"No","No","No","No","No","No","No","11/05/2013","09/02/2013",NA
"CDISCPILOT01","701-1302","AE","Adverse Events","Myalgia","Not Recovered/not Resolved","MYALGIA",10028411,"MYALGIA",NA,"HLT_0700",NA,"HLGT_0121",NA,"MUSCULOSKELETAL AND CONNECTIVE TISSUE DISORDERS",NA,"MUSCULOSKELETAL AND CONNECTIVE TISSUE DISORDERS",10028395,"Mild Adverse Event","No","Possibly Related",NA,"No","No","No","No","No","No","No","09/15/2013","09/02/2013",NA
"CDISCPILOT01","701-1302","AE","Adverse Events","Nasal Congestion","Not Recovered/not Resolved","NASAL CONGESTION",10028735,"NASAL CONGESTION",NA,"HLT_0118",NA,"HLGT_0549",NA,"RESPIRATORY, THORACIC AND MEDIASTINAL DISORDERS",NA,"RESPIRATORY, THORACIC AND MEDIASTINAL DISORDERS",10038738,"Mild Adverse Event","No","Not Related",NA,"No","No","No","No","No","No","No","09/15/2013","09/01/2013",NA
"CDISCPILOT01","701-1302","AE","Adverse Events","Pain","Not Recovered/not Resolved","STINGING",10042066,"PAIN",NA,"HLT_0314",NA,"HLGT_0478",NA,"GENERAL DISORDERS AND ADMINISTRATION SITE CONDITIONS",NA,"GENERAL DISORDERS AND ADMINISTRATION SITE CONDITIONS",10018065,"Mild Adverse Event","No","Possibly Related",NA,"No","No","No","No","No","No","No","09/15/2013","08/31/2013",NA
"CDISCPILOT01","701-1302","AE","Adverse Events","Pharyngolaryngeal Pain","Not Recovered/not Resolved","SORE THROAT",10041367,"PHARYNGOLARYNGEAL PAIN",NA,"HLT_0130",NA,"HLGT_0402",NA,"RESPIRATORY, THORACIC AND MEDIASTINAL DISORDERS",NA,"RESPIRATORY, THORACIC AND MEDIASTINAL DISORDERS",10038738,"Mild Adverse Event","No","Not Related",NA,"No","No","No","No","No","No","No","09/15/2013","09/02/2013",NA
"CDISCPILOT01","701-1302","AE","Adverse Events","Productive Cough","Not Recovered/not Resolved","PRODUCTIVE COUGH",10036790,"PRODUCTIVE COUGH",NA,"HLT_0545",NA,"HLGT_0681",NA,"RESPIRATORY, THORACIC AND MEDIASTINAL DISORDERS",NA,"RESPIRATORY, THORACIC AND MEDIASTINAL DISORDERS",10038738,"Mild Adverse Event","No","Not Related",NA,"No","No","No","No","No","No","No","09/15/2013","09/02/2013",NA
"CDISCPILOT01","701-1302","AE","Adverse Events","Respiratory Tract Congestion","Not Recovered/not Resolved","RESPIRATORY TRACT CONGESTION",10052251,"RESPIRATORY TRACT CONGESTION",NA,"HLT_0330",NA,"HLGT_0424",NA,"RESPIRATORY, THORACIC AND MEDIASTINAL DISORDERS",NA,"RESPIRATORY, THORACIC AND MEDIASTINAL DISORDERS",10038738,"Mild Adverse Event","No","Not Related",NA,"No","No","No","No","No","No","No","11/05/2013","10/23/2013",NA
"CDISCPILOT01","701-1302","AE","Adverse Events","Rhinitis","Not Recovered/not Resolved","CORYZA",10011214,"RHINITIS",NA,"HLT_0239",NA,"HLGT_0322",NA,"INFECTIONS AND INFESTATIONS",NA,"INFECTIONS AND INFESTATIONS",10021881,"Mild Adverse Event","No","Not Related",NA,"No","No","No","No","No","No","No","11/05/2013","10/23/2013",NA
"CDISCPILOT01","701-1302","AE","Adverse Events","Stomach Discomfort","Not Recovered/not Resolved","STOMACH UPSET",10042124,"STOMACH DISCOMFORT",NA,"HLT_0065",NA,"HLGT_0183",NA,"GASTROINTESTINAL DISORDERS",NA,"GASTROINTESTINAL DISORDERS",10017947,"Mild Adverse Event","No","Possibly Related",NA,"No","No","No","No","No","No","No","09/15/2013","08/30/2013",NA
"CDISCPILOT01","701-1317","AE","Adverse Events","Application Site Erythema","Not Recovered/not Resolved","APPLICATION SITE REDNESS",10003058,"APPLICATION SITE ERYTHEMA",NA,"HLT_0617",NA,"HLGT_0152",NA,"GENERAL DISORDERS AND ADMINISTRATION SITE CONDITIONS",NA,"GENERAL DISORDERS AND ADMINISTRATION SITE CONDITIONS",10018065,"Mild Adverse Event","No","Possibly Related",NA,"No","No","No","No","No","No","No","07/03/2014","06/23/2014",NA
"CDISCPILOT01","701-1317","AE","Adverse Events","Application Site Pruritus","Not Recovered/not Resolved","APPLICATION SITE ITCHING",10003047,"APPLICATION SITE PRURITUS",NA,"HLT_0317",NA,"HLGT_0338",NA,"GENERAL DISORDERS AND ADMINISTRATION SITE CONDITIONS",NA,"GENERAL DISORDERS AND ADMINISTRATION SITE CONDITIONS",10018065,"Mild Adverse Event","No","Possibly Related",NA,"No","No","No","No","No","No","No","07/03/2014","06/23/2014",NA
"CDISCPILOT01","701-1317","AE","Adverse Events","Application Site Urticaria","Not Recovered/not Resolved","APPLICATION SITE URTICARIA",10050104,"APPLICATION SITE URTICARIA",NA,"HLT_0196",NA,"HLGT_0233",NA,"GENERAL DISORDERS AND ADMINISTRATION SITE CONDITIONS",NA,"GENERAL DISORDERS AND ADMINISTRATION SITE CONDITIONS",10018065,"Mild Adverse Event","No","Possibly Related",NA,"No","No","No","No","No","No","No","07/03/2014","06/23/2014",NA
"CDISCPILOT01","701-1317","AE","Adverse Events","Cyst","Not Recovered/not Resolved","CYST",10011732,"CYST",NA,"HLT_0763",NA,"HLGT_0341",NA,"GENERAL DISORDERS AND ADMINISTRATION SITE CONDITIONS",NA,"GENERAL DISORDERS AND ADMINISTRATION SITE CONDITIONS",10018065,"Mild Adverse Event","No","Not Related",NA,"No","No","No","No","No","No","No","05/20/2014","05/13/2014",NA
"CDISCPILOT01","701-1317","AE","Adverse Events","Depressed Mood","Not Recovered/not Resolved","DEPRESSED MOOD",10012374,"DEPRESSED MOOD",NA,"HLT_0784",NA,"HLGT_0122",NA,"PSYCHIATRIC DISORDERS",NA,"PSYCHIATRIC DISORDERS",10037175,"Mild Adverse Event","No","Possibly Related",NA,"No","No","No","No","No","No","No","07/22/2014","07/04/2014",NA
"CDISCPILOT01","701-1317","AE","Adverse Events","Depressed Mood","Not Recovered/not Resolved","DEPRESSED MOOD",10012374,"DEPRESSED MOOD",NA,"HLT_0784",NA,"HLGT_0122",NA,"PSYCHIATRIC DISORDERS",NA,"PSYCHIATRIC DISORDERS",10037175,"Moderate Adverse Event","No","Possibly Related",NA,"No","No","No","No","No","No","No","10/09/2014","07/04/2014",NA
"CDISCPILOT01","701-1317","AE","Adverse Events","Dysphonia","Not Recovered/not Resolved","HOARSENESS",10020201,"DYSPHONIA",NA,"HLT_0073",NA,"HLGT_0274",NA,"RESPIRATORY, THORACIC AND MEDIASTINAL DISORDERS",NA,"RESPIRATORY, THORACIC AND MEDIASTINAL DISORDERS",10038738,"Mild Adverse Event","No","Remote",NA,"No","No","No","No","No","No","No","11/06/2014","11/03/2014",NA
"CDISCPILOT01","701-1317","AE","Adverse Events","Fatigue","Not Recovered/not Resolved","TIREDNESS",10043890,"FATIGUE",NA,"HLT_0043",NA,"HLGT_0181",NA,"GENERAL DISORDERS AND ADMINISTRATION SITE CONDITIONS",NA,"GENERAL DISORDERS AND ADMINISTRATION SITE CONDITIONS",10018065,"Mild Adverse Event","No","Remote",NA,"No","No","No","No","No","No","No","10/09/2014","09/12/2014",NA
"CDISCPILOT01","701-1317","AE","Adverse Events","Onychomycosis","Not Recovered/not Resolved","ONYCHOMYCOSIS",10030338,"ONYCHOMYCOSIS",NA,"HLT_0275",NA,"HLGT_0243",NA,"INFECTIONS AND INFESTATIONS",NA,"INFECTIONS AND INFESTATIONS",10021881,"Mild Adverse Event","No","Not Related",NA,"No","No","No","No","No","No","No","05/20/2014","05/13/2014",NA
"CDISCPILOT01","701-1324","AE","Adverse Events","Application Site Erythema","Not Recovered/not Resolved","APPLICATION SITE ERYTHEMA",10003041,"APPLICATION SITE ERYTHEMA",NA,"HLT_0617",NA,"HLGT_0152",NA,"GENERAL DISORDERS AND ADMINISTRATION SITE CONDITIONS",NA,"GENERAL DISORDERS AND ADMINISTRATION SITE CONDITIONS",10018065,"Mild Adverse Event","No","Probably Related",NA,"No","No","No","No","No","No","No","10/30/2012","10/22/2012",NA
"CDISCPILOT01","701-1324","AE","Adverse Events","Application Site Pruritus","Not Recovered/not Resolved","APPLICATION SITE ITCHING",10003047,"APPLICATION SITE PRURITUS",NA,"HLT_0317",NA,"HLGT_0338",NA,"GENERAL DISORDERS AND ADMINISTRATION SITE CONDITIONS",NA,"GENERAL DISORDERS AND ADMINISTRATION SITE CONDITIONS",10018065,"Mild Adverse Event","No","Probably Related",NA,"No","No","No","No","No","No","No","12/25/2012","12/02/2012",NA
"CDISCPILOT01","701-1324","AE","Adverse Events","Application Site Vesicles","Not Recovered/not Resolved","APPLICATION SITE BLISTER",10053414,"APPLICATION SITE VESICLES",NA,"HLT_0180",NA,"HLGT_0576",NA,"GENERAL DISORDERS AND ADMINISTRATION SITE CONDITIONS",NA,"GENERAL DISORDERS AND ADMINISTRATION SITE CONDITIONS",10018065,"Mild Adverse Event","No","Probably Related",NA,"No","No","No","No","No","No","No","12/25/2012","12/25/2012","01/16/2013"
"CDISCPILOT01","701-1324","AE","Adverse Events","Application Site Vesicles","Recovered/Resolved","APPLICATION SITE BLISTER",10053414,"APPLICATION SITE VESICLES",NA,"HLT_0180",NA,"HLGT_0576",NA,"GENERAL DISORDERS AND ADMINISTRATION SITE CONDITIONS",NA,"GENERAL DISORDERS AND ADMINISTRATION SITE CONDITIONS",10018065,"Mild Adverse Event","No","Probably Related",NA,"No","No","No","No","No","No","No","01/22/2013","12/25/2012","01/16/2013"
"CDISCPILOT01","701-1341","AE","Adverse Events","Application Site Erythema","Not Recovered/not Resolved","APPLICATION SITE REDNESS",10003058,"APPLICATION SITE ERYTHEMA",NA,"HLT_0617",NA,"HLGT_0152",NA,"GENERAL DISORDERS AND ADMINISTRATION SITE CONDITIONS",NA,"GENERAL DISORDERS AND ADMINISTRATION SITE CONDITIONS",10018065,"Moderate Adverse Event","No","Probably Related",NA,"No","No","No","No","No","No","No","02/07/2013","01/19/2013",NA
"CDISCPILOT01","701-1341","AE","Adverse Events","Application Site Erythema","Not Recovered/not Resolved","APPLICATION SITE REDNESS",10003058,"APPLICATION SITE ERYTHEMA",NA,"HLT_0617",NA,"HLGT_0152",NA,"GENERAL DISORDERS AND ADMINISTRATION SITE CONDITIONS",NA,"GENERAL DISORDERS AND ADMINISTRATION SITE CONDITIONS",10018065,"Moderate Adverse Event","No","Probably Related",NA,"No","No","No","No","No","No","No","02/07/2013","01/26/2013",NA
"CDISCPILOT01","701-1341","AE","Adverse Events","Application Site Irritation","Recovered/Resolved","APPLICATION SITE BURNING",10048942,"APPLICATION SITE IRRITATION",NA,"HLT_0061",NA,"HLGT_0346",NA,"GENERAL DISORDERS AND ADMINISTRATION SITE CONDITIONS",NA,"GENERAL DISORDERS AND ADMINISTRATION SITE CONDITIONS",10018065,"Moderate Adverse Event","No","Probably Related",NA,"No","No","No","No","No","No","No","02/07/2013","01/26/2013","01/30/2013"
"CDISCPILOT01","701-1341","AE","Adverse Events","Application Site Pruritus","Not Recovered/not Resolved","APPLICATION SITE ITCHING",10003047,"APPLICATION SITE PRURITUS",NA,"HLT_0317",NA,"HLGT_0338",NA,"GENERAL DISORDERS AND ADMINISTRATION SITE CONDITIONS",NA,"GENERAL DISORDERS AND ADMINISTRATION SITE CONDITIONS",10018065,"Moderate Adverse Event","No","Probably Related",NA,"No","No","No","No","No","No","No","02/07/2013","01/19/2013",NA
"CDISCPILOT01","701-1341","AE","Adverse Events","Application Site Pruritus","Recovered/Resolved","APPLICATION SITE ITCHING",10003047,"APPLICATION SITE PRURITUS",NA,"HLT_0317",NA,"HLGT_0338",NA,"GENERAL DISORDERS AND ADMINISTRATION SITE CONDITIONS",NA,"GENERAL DISORDERS AND ADMINISTRATION SITE CONDITIONS",10018065,"Moderate Adverse Event","No","Probably Related",NA,"No","No","No","No","No","No","No","02/07/2013","01/26/2013","01/30/2013"
"CDISCPILOT01","701-1360","AE","Adverse Events","Application Site Erythema","Not Recovered/not Resolved","APPLICATION SITE ERYTHEMA",10003041,"APPLICATION SITE ERYTHEMA",NA,"HLT_0617",NA,"HLGT_0152",NA,"GENERAL DISORDERS AND ADMINISTRATION SITE CONDITIONS",NA,"GENERAL DISORDERS AND ADMINISTRATION SITE CONDITIONS",10018065,"Moderate Adverse Event","No","Probably Related",NA,"No","No","No","No","No","No","No","08/14/2013","08/02/2013",NA
"CDISCPILOT01","701-1360","AE","Adverse Events","Application Site Pruritus","Not Recovered/not Resolved","APPLICATION SITE ITCHING",10003047,"APPLICATION SITE PRURITUS",NA,"HLT_0317",NA,"HLGT_0338",NA,"GENERAL DISORDERS AND ADMINISTRATION SITE CONDITIONS",NA,"GENERAL DISORDERS AND ADMINISTRATION SITE CONDITIONS",10018065,"Moderate Adverse Event","No","Probably Related",NA,"No","No","No","No","No","No","No","08/14/2013","08/02/2013",NA
"CDISCPILOT01","701-1360","AE","Adverse Events","Application Site Vesicles","Not Recovered/not Resolved","APPLICATION SITE BLISTER",10053414,"APPLICATION SITE VESICLES",NA,"HLT_0180",NA,"HLGT_0576",NA,"GENERAL DISORDERS AND ADMINISTRATION SITE CONDITIONS",NA,"GENERAL DISORDERS AND ADMINISTRATION SITE CONDITIONS",10018065,"Moderate Adverse Event","No","Probably Related",NA,"No","No","No","No","No","No","No","08/14/2013","08/05/2013",NA
"CDISCPILOT01","701-1363","AE","Adverse Events","Application Site Pruritus","Not Recovered/not Resolved","APPLICATION SITE ITCHING",10003047,"APPLICATION SITE PRURITUS",NA,"HLT_0317",NA,"HLGT_0338",NA,"GENERAL DISORDERS AND ADMINISTRATION SITE CONDITIONS",NA,"GENERAL DISORDERS AND ADMINISTRATION SITE CONDITIONS",10018065,"Mild Adverse Event","No","Probably Related",NA,"No","No","No","No","No","No","No","07/24/2013","07/16/2013",NA
"CDISCPILOT01","701-1363","AE","Adverse Events","Back Pain","Not Recovered/not Resolved","BACKACHE",10003993,"BACK PAIN",NA,"HLT_0115",NA,"HLGT_0508",NA,"MUSCULOSKELETAL AND CONNECTIVE TISSUE DISORDERS",NA,"MUSCULOSKELETAL AND CONNECTIVE TISSUE DISORDERS",10028395,"Mild Adverse Event","No","Not Related",NA,"No","No","No","No","No","No","No","10/14/2013","10/13/2013","10/15/2013"
"CDISCPILOT01","701-1363","AE","Adverse Events","Back Pain","Recovered/Resolved","BACKACHE",10003993,"BACK PAIN",NA,"HLT_0115",NA,"HLGT_0508",NA,"MUSCULOSKELETAL AND CONNECTIVE TISSUE DISORDERS",NA,"MUSCULOSKELETAL AND CONNECTIVE TISSUE DISORDERS",10028395,"Mild Adverse Event","No","Not Related",NA,"No","No","No","No","No","No","No","11/13/2013","10/13/2013","10/15/2013"
"CDISCPILOT01","701-1363","AE","Adverse Events","Headache","Not Recovered/not Resolved","HEADACHE",10019211,"HEADACHE",NA,"HLT_0064",NA,"HLGT_0344",NA,"NERVOUS SYSTEM DISORDERS",NA,"NERVOUS SYSTEM DISORDERS",10029205,"Moderate Adverse Event","No","Possibly Related",NA,"No","No","No","No","No","No","No","07/24/2013","1986",NA
"CDISCPILOT01","701-1363","AE","Adverse Events","Headache","Not Recovered/not Resolved","HEADACHE",10019211,"HEADACHE",NA,"HLT_0064",NA,"HLGT_0344",NA,"NERVOUS SYSTEM DISORDERS",NA,"NERVOUS SYSTEM DISORDERS",10029205,"Mild Adverse Event","No","Possibly Related",NA,"No","No","No","No","No","No","No","10/14/2013","1986",NA
"CDISCPILOT01","701-1363","AE","Adverse Events","Nausea","Recovered/Resolved","NAUSEA",10028813,"NAUSEA",NA,"HLT_0742",NA,"HLGT_0326",NA,"GASTROINTESTINAL DISORDERS",NA,"GASTROINTESTINAL DISORDERS",10017947,"Mild Adverse Event","No","Remote",NA,"No","No","No","No","No","No","No","06/25/2013","06/14/2013","06/15/2013"
"CDISCPILOT01","701-1383","AE","Adverse Events","Application Site Erythema","Recovered/Resolved","APPLICATION SITE ERYTHEMA",10003041,"APPLICATION SITE ERYTHEMA",NA,"HLT_0617",NA,"HLGT_0152",NA,"GENERAL DISORDERS AND ADMINISTRATION SITE CONDITIONS",NA,"GENERAL DISORDERS AND ADMINISTRATION SITE CONDITIONS",10018065,"Mild Adverse Event","No","Possibly Related",NA,"No","No","No","No","No","No","No","04/02/2013","03/23/2013","03/26/2013"
"CDISCPILOT01","701-1383","AE","Adverse Events","Application Site Erythema","Not Recovered/not Resolved","APPLICATION SITE ERYTHEMA",10003041,"APPLICATION SITE ERYTHEMA",NA,"HLT_0617",NA,"HLGT_0152",NA,"GENERAL DISORDERS AND ADMINISTRATION SITE CONDITIONS",NA,"GENERAL DISORDERS AND ADMINISTRATION SITE CONDITIONS",10018065,"Mild Adverse Event","No","Possibly Related",NA,"No","No","No","No","No","No","No","04/30/2013","04/12/2013",NA
"CDISCPILOT01","701-1383","AE","Adverse Events","Application Site Irritation","Not Recovered/not Resolved","APPLICATION SITE BURNING",10048942,"APPLICATION SITE IRRITATION",NA,"HLT_0061",NA,"HLGT_0346",NA,"GENERAL DISORDERS AND ADMINISTRATION SITE CONDITIONS",NA,"GENERAL DISORDERS AND ADMINISTRATION SITE CONDITIONS",10018065,"Mild Adverse Event","No","Possibly Related",NA,"No","No","No","No","No","No","No","04/30/2013","04/12/2013",NA
"CDISCPILOT01","701-1383","AE","Adverse Events","Application Site Irritation","Not Recovered/not Resolved","APPLICATION SITE BURNING",10048942,"APPLICATION SITE IRRITATION",NA,"HLT_0061",NA,"HLGT_0346",NA,"GENERAL DISORDERS AND ADMINISTRATION SITE CONDITIONS",NA,"GENERAL DISORDERS AND ADMINISTRATION SITE CONDITIONS",10018065,"Moderate Adverse Event","No","Possibly Related",NA,"No","No","No","No","No","No","No","05/30/2013","04/12/2013",NA
"CDISCPILOT01","701-1383","AE","Adverse Events","Application Site Pain","Recovered/Resolved","APPLICATION SITE PAIN",10003051,"APPLICATION SITE PAIN",NA,"HLT_0342",NA,"HLGT_0085",NA,"GENERAL DISORDERS AND ADMINISTRATION SITE CONDITIONS",NA,"GENERAL DISORDERS AND ADMINISTRATION SITE CONDITIONS",10018065,"Mild Adverse Event","No","Probably Related",NA,"No","No","No","No","No","No","No","02/19/2013","02/07/2013","02/07/2013"
"CDISCPILOT01","701-1383","AE","Adverse Events","Application Site Pruritus","Recovered/Resolved","APPLICATION SITE ITCHING",10003047,"APPLICATION SITE PRURITUS",NA,"HLT_0317",NA,"HLGT_0338",NA,"GENERAL DISORDERS AND ADMINISTRATION SITE CONDITIONS",NA,"GENERAL DISORDERS AND ADMINISTRATION SITE CONDITIONS",10018065,"Mild Adverse Event","No","Probably Related",NA,"No","No","No","No","No","No","No","02/19/2013","02/07/2013","02/07/2013"
"CDISCPILOT01","701-1383","AE","Adverse Events","Application Site Pruritus","Not Recovered/not Resolved","APPLICATION SITE ITCHING",10003047,"APPLICATION SITE PRURITUS",NA,"HLT_0317",NA,"HLGT_0338",NA,"GENERAL DISORDERS AND ADMINISTRATION SITE CONDITIONS",NA,"GENERAL DISORDERS AND ADMINISTRATION SITE CONDITIONS",10018065,"Mild Adverse Event","No","Possibly Related",NA,"No","No","No","No","No","No","No","04/02/2013","03/23/2013",NA
"CDISCPILOT01","701-1383","AE","Adverse Events","Application Site Pruritus","Not Recovered/not Resolved","APPLICATION SITE ITCHING",10003047,"APPLICATION SITE PRURITUS",NA,"HLT_0317",NA,"HLGT_0338",NA,"GENERAL DISORDERS AND ADMINISTRATION SITE CONDITIONS",NA,"GENERAL DISORDERS AND ADMINISTRATION SITE CONDITIONS",10018065,"Moderate Adverse Event","No","Possibly Related",NA,"No","No","No","No","No","No","No","05/30/2013","03/23/2013",NA
"CDISCPILOT01","701-1383","AE","Adverse Events","Application Site Vesicles","Recovered/Resolved","APPLICATION SITE BLISTER",10053414,"APPLICATION SITE VESICLES",NA,"HLT_0180",NA,"HLGT_0576",NA,"GENERAL DISORDERS AND ADMINISTRATION SITE CONDITIONS",NA,"GENERAL DISORDERS AND ADMINISTRATION SITE CONDITIONS",10018065,"Mild Adverse Event","No","Possibly Related",NA,"No","No","No","No","No","No","No","05/30/2013","05/07/2013","05/24/2013"
"CDISCPILOT01","701-1383","AE","Adverse Events","Chest Discomfort","Recovered/Resolved","CHEST PRESSURE",10008486,"CHEST DISCOMFORT",NA,"HLT_0593",NA,"HLGT_0441",NA,"GENERAL DISORDERS AND ADMINISTRATION SITE CONDITIONS",NA,"GENERAL DISORDERS AND ADMINISTRATION SITE CONDITIONS",10018065,"Mild Adverse Event","No","Not Related",NA,"No","No","No","No","No","No","No","06/25/2013","06/24/2013","06/24/2013"
"CDISCPILOT01","701-1383","AE","Adverse Events","Cough","Recovered/Resolved","COUGH",10011224,"COUGH",NA,"HLT_0701",NA,"HLGT_0280",NA,"RESPIRATORY, THORACIC AND MEDIASTINAL DISORDERS",NA,"RESPIRATORY, THORACIC AND MEDIASTINAL DISORDERS",10038738,"Moderate Adverse Event","No","Not Related",NA,"No","No","No","No","No","No","No","07/30/2013","07/17/2013","07/26/2013"
"CDISCPILOT01","701-1383","AE","Adverse Events","Headache","Recovered/Resolved","FULLNESS HEAD",10017468,"HEADACHE",NA,"HLT_0064",NA,"HLGT_0344",NA,"NERVOUS SYSTEM DISORDERS",NA,"NERVOUS SYSTEM DISORDERS",10029205,"Mild Adverse Event","No","Not Related",NA,"No","No","No","No","No","No","No","06/25/2013","06/24/2013","06/24/2013"
"CDISCPILOT01","701-1387","AE","Adverse Events","Diarrhoea","Recovered/Resolved","DIARRHEA",10012727,"DIARRHOEA",NA,"HLT_0148",NA,"HLGT_0588",NA,"GASTROINTESTINAL DISORDERS",NA,"GASTROINTESTINAL DISORDERS",10017947,"Mild Adverse Event","No","Remote",NA,"No","No","No","No","No","No","No","03/25/2014","03/18/2014","03/18/2014"
"CDISCPILOT01","701-1387","AE","Adverse Events","Hyperhidrosis","Recovered/Resolved","SWEATING",10042661,"HYPERHIDROSIS",NA,"HLT_0587",NA,"HLGT_0005",NA,"SKIN AND SUBCUTANEOUS TISSUE DISORDERS",NA,"SKIN AND SUBCUTANEOUS TISSUE DISORDERS",10040785,"Mild Adverse Event","No","Remote",NA,"No","No","No","No","No","No","No","03/25/2014","03/18/2014","03/18/2014"
"CDISCPILOT01","701-1392","AE","Adverse Events","Upper Respiratory Tract Infection","Not Recovered/not Resolved","UPPER RESPIRATORY INFECTION",10046300,"UPPER RESPIRATORY TRACT INFECTION",NA,"HLT_0520",NA,"HLGT_0489",NA,"INFECTIONS AND INFESTATIONS",NA,"INFECTIONS AND INFESTATIONS",10021881,"Mild Adverse Event","No","Remote",NA,"No","No","No","No","No","No","No","03/17/2013","03/16/2013","03/21/2013"
"CDISCPILOT01","701-1392","AE","Adverse Events","Upper Respiratory Tract Infection","Recovered/Resolved","UPPER RESPIRATORY INFECTION",10046300,"UPPER RESPIRATORY TRACT INFECTION",NA,"HLT_0520",NA,"HLGT_0489",NA,"INFECTIONS AND INFESTATIONS",NA,"INFECTIONS AND INFESTATIONS",10021881,"Mild Adverse Event","No","Remote",NA,"No","No","No","No","No","No","No","04/15/2013","03/16/2013","03/21/2013"
"CDISCPILOT01","701-1415","AE","Adverse Events","Diarrhoea","Recovered/Resolved","DIARRHEA",10012727,"DIARRHOEA",NA,"HLT_0148",NA,"HLGT_0588",NA,"GASTROINTESTINAL DISORDERS",NA,"GASTROINTESTINAL DISORDERS",10017947,"Mild Adverse Event","No","Not Related",NA,"No","No","No","No","No","No","No","03/10/2014","03/09/2014","03/09/2014"
"CDISCPILOT01","701-1415","AE","Adverse Events","Micturition Urgency","Not Recovered/not Resolved","URINARY URGENCY",10046593,"MICTURITION URGENCY",NA,"HLT_0294",NA,"HLGT_0483",NA,"RENAL AND URINARY DISORDERS",NA,"RENAL AND URINARY DISORDERS",10038359,"Mild Adverse Event","No","Not Related",NA,"No","No","No","No","No","No","No","12/21/2013","12/02/2013",NA
"CDISCPILOT01","701-1415","AE","Adverse Events","Upper Respiratory Tract Infection","Not Recovered/not Resolved","UPPER RESPIRATORY INFECTION",10046300,"UPPER RESPIRATORY TRACT INFECTION",NA,"HLT_0520",NA,"HLGT_0489",NA,"INFECTIONS AND INFESTATIONS",NA,"INFECTIONS AND INFESTATIONS",10021881,"Mild Adverse Event","No","Not Related",NA,"No","No","No","No","No","No","No","10/22/2013","10/21/2013","11/04/2013"
"CDISCPILOT01","701-1415","AE","Adverse Events","Upper Respiratory Tract Infection","Recovered/Resolved","UPPER RESPIRATORY INFECTION",10046300,"UPPER RESPIRATORY TRACT INFECTION",NA,"HLT_0520",NA,"HLGT_0489",NA,"INFECTIONS AND INFESTATIONS",NA,"INFECTIONS AND INFESTATIONS",10021881,"Mild Adverse Event","No","Not Related",NA,"No","No","No","No","No","No","No","11/21/2013","10/21/2013","11/04/2013"
"CDISCPILOT01","701-1415","AE","Adverse Events","Upper Respiratory Tract Infection","Not Recovered/not Resolved","UPPER RESPIRATORY INFECTION",10046300,"UPPER RESPIRATORY TRACT INFECTION",NA,"HLT_0520",NA,"HLGT_0489",NA,"INFECTIONS AND INFESTATIONS",NA,"INFECTIONS AND INFESTATIONS",10021881,"Mild Adverse Event","No","Remote",NA,"No","No","No","No","No","No","No","02/10/2014","01/21/2014","02/10/2014"
"CDISCPILOT01","701-1415","AE","Adverse Events","Upper Respiratory Tract Infection","Recovered/Resolved","UPPER RESPIRATORY INFECTION",10046300,"UPPER RESPIRATORY TRACT INFECTION",NA,"HLT_0520",NA,"HLGT_0489",NA,"INFECTIONS AND INFESTATIONS",NA,"INFECTIONS AND INFESTATIONS",10021881,"Mild Adverse Event","No","Remote",NA,"No","No","No","No","No","No","No","03/10/2014","01/21/2014","02/10/2014"
"CDISCPILOT01","701-1442","AE","Adverse Events","Application Site Pruritus","Not Recovered/not Resolved","APPLICATION SITE ITCHING",10003047,"APPLICATION SITE PRURITUS",NA,"HLT_0317",NA,"HLGT_0338",NA,"GENERAL DISORDERS AND ADMINISTRATION SITE CONDITIONS",NA,"GENERAL DISORDERS AND ADMINISTRATION SITE CONDITIONS",10018065,"Mild Adverse Event","No","Probably Related",NA,"No","No","No","No","No","No","No","01/18/2014","01/10/2014",NA
"CDISCPILOT01","701-1444","AE","Adverse Events","Application Site Erythema","Not Recovered/not Resolved","APPLICATION SITE ERYTHEMA",10003041,"APPLICATION SITE ERYTHEMA",NA,"HLT_0617",NA,"HLGT_0152",NA,"GENERAL DISORDERS AND ADMINISTRATION SITE CONDITIONS",NA,"GENERAL DISORDERS AND ADMINISTRATION SITE CONDITIONS",10018065,"Mild Adverse Event","No","Possibly Related",NA,"No","No","No","No","No","No","No","01/31/2013","01/19/2013",NA
"CDISCPILOT01","701-1444","AE","Adverse Events","Application Site Erythema","Not Recovered/not Resolved","APPLICATION SITE ERYTHEMA",10003041,"APPLICATION SITE ERYTHEMA",NA,"HLT_0617",NA,"HLGT_0152",NA,"GENERAL DISORDERS AND ADMINISTRATION SITE CONDITIONS",NA,"GENERAL DISORDERS AND ADMINISTRATION SITE CONDITIONS",10018065,"Moderate Adverse Event","No","Possibly Related",NA,"No","No","No","No","No","No","No","02/13/2013","01/19/2013",NA
"CDISCPILOT01","701-1444","AE","Adverse Events","Application Site Irritation","Not Recovered/not Resolved","APPLICATION SITE BURNING",10048942,"APPLICATION SITE IRRITATION",NA,"HLT_0061",NA,"HLGT_0346",NA,"GENERAL DISORDERS AND ADMINISTRATION SITE CONDITIONS",NA,"GENERAL DISORDERS AND ADMINISTRATION SITE CONDITIONS",10018065,"Moderate Adverse Event","No","Probably Related",NA,"No","No","No","No","No","No","No","02/13/2013","02/04/2013",NA
"CDISCPILOT01","701-1444","AE","Adverse Events","Application Site Pruritus","Not Recovered/not Resolved","APPLICATION SITE ITCHING",10003047,"APPLICATION SITE PRURITUS",NA,"HLT_0317",NA,"HLGT_0338",NA,"GENERAL DISORDERS AND ADMINISTRATION SITE CONDITIONS",NA,"GENERAL DISORDERS AND ADMINISTRATION SITE CONDITIONS",10018065,"Mild Adverse Event","No","Probably Related",NA,"No","No","No","No","No","No","No","01/31/2013","01/19/2013",NA
"CDISCPILOT01","701-1444","AE","Adverse Events","Application Site Pruritus","Not Recovered/not Resolved","APPLICATION SITE ITCHING",10003047,"APPLICATION SITE PRURITUS",NA,"HLT_0317",NA,"HLGT_0338",NA,"GENERAL DISORDERS AND ADMINISTRATION SITE CONDITIONS",NA,"GENERAL DISORDERS AND ADMINISTRATION SITE CONDITIONS",10018065,"Moderate Adverse Event","No","Probably Related",NA,"No","No","No","No","No","No","No","02/13/2013","01/19/2013",NA
"CDISCPILOT01","701-1444","AE","Adverse Events","Application Site Vesicles","Not Recovered/not Resolved","APPLICATION SITE BLISTER",10053414,"APPLICATION SITE VESICLES",NA,"HLT_0180",NA,"HLGT_0576",NA,"GENERAL DISORDERS AND ADMINISTRATION SITE CONDITIONS",NA,"GENERAL DISORDERS AND ADMINISTRATION SITE CONDITIONS",10018065,"Moderate Adverse Event","No","Probably Related",NA,"No","No","No","No","No","No","No","02/13/2013","02/04/2013",NA
"CDISCPILOT01","701-1444","AE","Adverse Events","Paraesthesia","Recovered/Resolved","TINGLING",10043876,"PARAESTHESIA",NA,"HLT_0481",NA,"HLGT_0534",NA,"NERVOUS SYSTEM DISORDERS",NA,"NERVOUS SYSTEM DISORDERS",10029205,"Mild Adverse Event","No","Not Related",NA,"No","No","No","No","No","No","No","02/13/2013","02/08/2013","02/08/2013"
"CDISCPILOT01","701-1444","AE","Adverse Events","Salivary Hypersecretion","Not Recovered/not Resolved","HYPERSALIVATION",10020746,"SALIVARY HYPERSECRETION",NA,"HLT_0374",NA,"HLGT_0488",NA,"GASTROINTESTINAL DISORDERS",NA,"GASTROINTESTINAL DISORDERS",10017947,"Mild Adverse Event","No","Possibly Related",NA,"No","No","No","No","No","No","No","01/31/2013","01/19/2013",NA
"CDISCPILOT01","702-1082","AE","Adverse Events","Application Site Irritation","Recovered/Resolved","APPLICATION SITE IRRITATION",10003046,"APPLICATION SITE IRRITATION",NA,"HLT_0061",NA,"HLGT_0346",NA,"GENERAL DISORDERS AND ADMINISTRATION SITE CONDITIONS",NA,"GENERAL DISORDERS AND ADMINISTRATION SITE CONDITIONS",10018065,"Mild Adverse Event","No","Probably Related",NA,"No","No","No","No","No","No","No","09/28/2013","09/09/2013","09/24/2013"
"CDISCPILOT01","702-1082","AE","Adverse Events","Neutrophil Count Increased","Not Recovered/not Resolved","NEUTROPHIL COUNT INCREASED",10029368,"NEUTROPHIL COUNT INCREASED",NA,"HLT_0326",NA,"HLGT_0625",NA,"INVESTIGATIONS",NA,"INVESTIGATIONS",10022891,"Mild Adverse Event","No","Not Related",NA,"No","No","No","No","No","No","No","07/24/2013","07/07/2013","07/26/2013"
"CDISCPILOT01","702-1082","AE","Adverse Events","Neutrophil Count Increased","Recovered/Resolved","NEUTROPHIL COUNT INCREASED",10029368,"NEUTROPHIL COUNT INCREASED",NA,"HLT_0326",NA,"HLGT_0625",NA,"INVESTIGATIONS",NA,"INVESTIGATIONS",10022891,"Mild Adverse Event","No","Not Related",NA,"No","No","No","No","No","No","No","08/08/2013","07/07/2013","07/26/2013"
"CDISCPILOT01","702-1082","AE","Adverse Events","Rectal Haemorrhage","Not Recovered/not Resolved","RECTAL BLEEDING",10038035,"RECTAL HAEMORRHAGE",NA,"HLT_0353",NA,"HLGT_0755",NA,"GASTROINTESTINAL DISORDERS",NA,"GASTROINTESTINAL DISORDERS",10017947,"Mild Adverse Event","No","Not Related",NA,"No","No","No","No","No","No","No","09/06/2013","09/02/2013","09/06/2013"
"CDISCPILOT01","702-1082","AE","Adverse Events","Rectal Haemorrhage","Recovered/Resolved","RECTAL BLEEDING",10038035,"RECTAL HAEMORRHAGE",NA,"HLT_0353",NA,"HLGT_0755",NA,"GASTROINTESTINAL DISORDERS",NA,"GASTROINTESTINAL DISORDERS",10017947,"Mild Adverse Event","No","Not Related",NA,"No","No","No","No","No","No","No","09/28/2013","09/02/2013","09/06/2013"
"CDISCPILOT01","702-1082","AE","Adverse Events","Skin Irritation","Recovered/Resolved","SKIN IRRITATION",10040880,"SKIN IRRITATION",NA,"HLT_0583",NA,"HLGT_0384",NA,"SKIN AND SUBCUTANEOUS TISSUE DISORDERS",NA,"SKIN AND SUBCUTANEOUS TISSUE DISORDERS",10040785,"Moderate Adverse Event","No","Probably Related",NA,"No","No","No","No","No","No","No","11/17/2013","10/12/2013","10/31/2013"
"CDISCPILOT01","702-1082","AE","Adverse Events","Urine Analysis Abnormal","Not Recovered/not Resolved","URINE ANALYSIS ABNORMAL",10062226,"URINE ANALYSIS ABNORMAL",NA,"HLT_0783",NA,"HLGT_0295",NA,"INVESTIGATIONS",NA,"INVESTIGATIONS",10022891,"Mild Adverse Event","No","Not Related",NA,"No","No","No","No","No","No","No","07/24/2013","07/07/2013","07/24/2013"
"CDISCPILOT01","702-1082","AE","Adverse Events","Urine Analysis Abnormal","Recovered/Resolved","URINE ANALYSIS ABNORMAL",10062226,"URINE ANALYSIS ABNORMAL",NA,"HLT_0783",NA,"HLGT_0295",NA,"INVESTIGATIONS",NA,"INVESTIGATIONS",10022891,"Mild Adverse Event","No","Not Related",NA,"No","No","No","No","No","No","No","07/26/2013","07/07/2013","07/24/2013"
"CDISCPILOT01","702-1082","AE","Adverse Events","White Blood Cell Count Increased","Not Recovered/not Resolved","WBC INCREASED",10056739,"WHITE BLOOD CELL COUNT INCREASED",NA,"HLT_0417",NA,"HLGT_0465",NA,"INVESTIGATIONS",NA,"INVESTIGATIONS",10022891,"Mild Adverse Event","No","Not Related",NA,"No","No","No","No","No","No","No","07/24/2013","07/07/2013","07/26/2013"
"CDISCPILOT01","702-1082","AE","Adverse Events","White Blood Cell Count Increased","Recovered/Resolved","WBC INCREASED",10056739,"WHITE BLOOD CELL COUNT INCREASED",NA,"HLT_0417",NA,"HLGT_0465",NA,"INVESTIGATIONS",NA,"INVESTIGATIONS",10022891,"Mild Adverse Event","No","Not Related",NA,"No","No","No","No","No","No","No","08/08/2013","07/07/2013","07/26/2013"
"CDISCPILOT01","703-1042","AE","Adverse Events","Diarrhoea","Recovered/Resolved","DIARRHEA",10012727,"DIARRHOEA",NA,"HLT_0148",NA,"HLGT_0588",NA,"GASTROINTESTINAL DISORDERS",NA,"GASTROINTESTINAL DISORDERS",10017947,"Mild Adverse Event","No","Possibly Related",NA,"No","No","No","No","No","No","No","03/14/2013","03/04/2013","03/05/2013"
"CDISCPILOT01","703-1042","AE","Adverse Events","Insomnia","Recovered/Resolved","INSOMNIA",10022437,"INSOMNIA",NA,"HLT_0297",NA,"HLGT_0469",NA,"PSYCHIATRIC DISORDERS",NA,"PSYCHIATRIC DISORDERS",10037175,"Mild Adverse Event","No","Remote",NA,"No","No","No","No","No","No","No","03/14/2013","03/05/2013","03/06/2013"
"CDISCPILOT01","703-1076","AE","Adverse Events","Application Site Dermatitis","Not Recovered/not Resolved","APPLICATION SITE RASH",10003054,"APPLICATION SITE DERMATITIS",NA,"HLT_0343",NA,"HLGT_0241",NA,"GENERAL DISORDERS AND ADMINISTRATION SITE CONDITIONS",NA,"GENERAL DISORDERS AND ADMINISTRATION SITE CONDITIONS",10018065,"Mild Adverse Event","No","Probably Related",NA,"No","No","No","No","No","No","No","12/04/2013","11/23/2013",NA
"CDISCPILOT01","703-1076","AE","Adverse Events","Application Site Pruritus","Not Recovered/not Resolved","APPLICATION SITE ITCHING",10003047,"APPLICATION SITE PRURITUS",NA,"HLT_0317",NA,"HLGT_0338",NA,"GENERAL DISORDERS AND ADMINISTRATION SITE CONDITIONS",NA,"GENERAL DISORDERS AND ADMINISTRATION SITE CONDITIONS",10018065,"Mild Adverse Event","No","Probably Related",NA,"No","No","No","No","No","No","No","12/04/2013","11/23/2013",NA
"CDISCPILOT01","703-1076","AE","Adverse Events","Application Site Pruritus","Not Recovered/not Resolved","APPLICATION SITE ITCHING",10003047,"APPLICATION SITE PRURITUS",NA,"HLT_0317",NA,"HLGT_0338",NA,"GENERAL DISORDERS AND ADMINISTRATION SITE CONDITIONS",NA,"GENERAL DISORDERS AND ADMINISTRATION SITE CONDITIONS",10018065,"Moderate Adverse Event","No","Probably Related",NA,"No","No","No","No","No","No","No","12/17/2013","11/23/2013",NA
"CDISCPILOT01","703-1076","AE","Adverse Events","Benign Prostatic Hyperplasia","Not Recovered/not Resolved","BENIGN PROSTATIC HYPERTROPHY",10004447,"BENIGN PROSTATIC HYPERPLASIA",NA,"HLT_0215",NA,"HLGT_0568",NA,"REPRODUCTIVE SYSTEM AND BREAST DISORDERS",NA,"REPRODUCTIVE SYSTEM AND BREAST DISORDERS",10038604,"Moderate Adverse Event","No","Not Related",NA,"No","No","No","No","No","No","No","11/20/2013","11/20/2013",NA
"CDISCPILOT01","703-1076","AE","Adverse Events","Biopsy Prostate","Recovered/Resolved","BIOPSY OF PROSTATE",10004825,"BIOPSY PROSTATE",NA,"HLT_0553",NA,"HLGT_0725",NA,"INVESTIGATIONS",NA,"INVESTIGATIONS",10022891,"Moderate Adverse Event","No","Not Related",NA,"No","No","No","No","No","No","No","11/20/2013","11/16/2013","11/16/2013"
"CDISCPILOT01","703-1076","AE","Adverse Events","Hypercholesterolaemia","Not Recovered/not Resolved","HYPERCHOLESTEROLEMIA",10020604,"HYPERCHOLESTEROLAEMIA",NA,"HLT_0025",NA,"HLGT_0703",NA,"METABOLISM AND NUTRITION DISORDERS",NA,"METABOLISM AND NUTRITION DISORDERS",10027433,"Moderate Adverse Event","No","Not Related",NA,"No","No","No","No","No","No","No","12/04/2013","2007",NA
"CDISCPILOT01","703-1076","AE","Adverse Events","Hyperhidrosis","Not Recovered/not Resolved","SWEATING",10042661,"HYPERHIDROSIS",NA,"HLT_0587",NA,"HLGT_0005",NA,"SKIN AND SUBCUTANEOUS TISSUE DISORDERS",NA,"SKIN AND SUBCUTANEOUS TISSUE DISORDERS",10040785,"Mild Adverse Event","No","Possibly Related",NA,"No","No","No","No","No","No","No","12/04/2013","11/25/2013",NA
"CDISCPILOT01","703-1086","AE","Adverse Events","Application Site Irritation","Not Recovered/not Resolved","APPLICATION SITE IRRITATION",10003046,"APPLICATION SITE IRRITATION",NA,"HLT_0061",NA,"HLGT_0346",NA,"GENERAL DISORDERS AND ADMINISTRATION SITE CONDITIONS",NA,"GENERAL DISORDERS AND ADMINISTRATION SITE CONDITIONS",10018065,"Mild Adverse Event","No","Probably Related",NA,"No","No","No","No","No","No","No","09/16/2012","09/13/2012","01/02/2013"
"CDISCPILOT01","703-1086","AE","Adverse Events","Application Site Irritation","Not Recovered/not Resolved","APPLICATION SITE IRRITATION",10003046,"APPLICATION SITE IRRITATION",NA,"HLT_0061",NA,"HLGT_0346",NA,"GENERAL DISORDERS AND ADMINISTRATION SITE CONDITIONS",NA,"GENERAL DISORDERS AND ADMINISTRATION SITE CONDITIONS",10018065,"Moderate Adverse Event","No","Probably Related",NA,"No","No","No","No","No","No","No","09/30/2012","09/13/2012","01/02/2013"
"CDISCPILOT01","703-1086","AE","Adverse Events","Application Site Irritation","Not Recovered/not Resolved","APPLICATION SITE IRRITATION",10003046,"APPLICATION SITE IRRITATION",NA,"HLT_0061",NA,"HLGT_0346",NA,"GENERAL DISORDERS AND ADMINISTRATION SITE CONDITIONS",NA,"GENERAL DISORDERS AND ADMINISTRATION SITE CONDITIONS",10018065,"Severe Adverse Event","No","Probably Related",NA,"No","No","No","No","No","No","No","10/13/2012","09/13/2012","01/02/2013"
"CDISCPILOT01","703-1086","AE","Adverse Events","Application Site Irritation","Recovered/Resolved","APPLICATION SITE IRRITATION",10003046,"APPLICATION SITE IRRITATION",NA,"HLT_0061",NA,"HLGT_0346",NA,"GENERAL DISORDERS AND ADMINISTRATION SITE CONDITIONS",NA,"GENERAL DISORDERS AND ADMINISTRATION SITE CONDITIONS",10018065,"Mild Adverse Event","No","Probably Related",NA,"No","No","No","No","No","No","No","03/26/2013","09/13/2012","01/02/2013"
"CDISCPILOT01","703-1086","AE","Adverse Events","Chills","Not Recovered/not Resolved","CHILLS",10008531,"CHILLS",NA,"HLT_0586",NA,"HLGT_0161",NA,"GENERAL DISORDERS AND ADMINISTRATION SITE CONDITIONS",NA,"GENERAL DISORDERS AND ADMINISTRATION SITE CONDITIONS",10018065,"Mild Adverse Event","No","Possibly Related",NA,"No","No","No","No","No","No","No","10/13/2012","10/09/2012","10/15/2012"
"CDISCPILOT01","703-1086","AE","Adverse Events","Chills","Recovered/Resolved","CHILLS",10008531,"CHILLS",NA,"HLT_0586",NA,"HLGT_0161",NA,"GENERAL DISORDERS AND ADMINISTRATION SITE CONDITIONS",NA,"GENERAL DISORDERS AND ADMINISTRATION SITE CONDITIONS",10018065,"Mild Adverse Event","No","Possibly Related",NA,"No","No","No","No","No","No","No","10/27/2012","10/09/2012","10/15/2012"
"CDISCPILOT01","703-1100","AE","Adverse Events","Application Site Irritation","Not Recovered/not Resolved","APPLICATION SITE IRRITATION",10003046,"APPLICATION SITE IRRITATION",NA,"HLT_0061",NA,"HLGT_0346",NA,"GENERAL DISORDERS AND ADMINISTRATION SITE CONDITIONS",NA,"GENERAL DISORDERS AND ADMINISTRATION SITE CONDITIONS",10018065,"Moderate Adverse Event","No","Probably Related",NA,"No","No","No","No","No","No","No","04/12/2013","04/05/2013","04/16/2013"
"CDISCPILOT01","703-1100","AE","Adverse Events","Application Site Irritation","Not Recovered/not Resolved","APPLICATION SITE IRRITATION",10003046,"APPLICATION SITE IRRITATION",NA,"HLT_0061",NA,"HLGT_0346",NA,"GENERAL DISORDERS AND ADMINISTRATION SITE CONDITIONS",NA,"GENERAL DISORDERS AND ADMINISTRATION SITE CONDITIONS",10018065,"Mild Adverse Event","No","Probably Related",NA,"No","No","No","No","No","No","No","04/14/2013","04/05/2013","04/16/2013"
"CDISCPILOT01","703-1100","AE","Adverse Events","Application Site Irritation","Recovered/Resolved","APPLICATION SITE IRRITATION",10003046,"APPLICATION SITE IRRITATION",NA,"HLT_0061",NA,"HLGT_0346",NA,"GENERAL DISORDERS AND ADMINISTRATION SITE CONDITIONS",NA,"GENERAL DISORDERS AND ADMINISTRATION SITE CONDITIONS",10018065,"Mild Adverse Event","No","Probably Related",NA,"No","No","No","No","No","No","No","04/24/2013","04/05/2013","04/16/2013"
"CDISCPILOT01","703-1100","AE","Adverse Events","Cataract Operation","Recovered/Resolved","CATARACT EXTRACTION",10007750,"CATARACT OPERATION",NA,"HLT_0432",NA,"HLGT_0058",NA,"SURGICAL AND MEDICAL PROCEDURES",NA,"SURGICAL AND MEDICAL PROCEDURES",10042613,"Moderate Adverse Event","No","Not Related",NA,"No","No","No","No","No","No","No","05/08/2013","04/25/2013","04/25/2013"
"CDISCPILOT01","703-1100","AE","Adverse Events","Oedema Peripheral","Not Recovered/not Resolved","LEG EDEMA",10024127,"OEDEMA PERIPHERAL",NA,"HLT_0661",NA,"HLGT_0137",NA,"GENERAL DISORDERS AND ADMINISTRATION SITE CONDITIONS",NA,"GENERAL DISORDERS AND ADMINISTRATION SITE CONDITIONS",10018065,"Moderate Adverse Event","No","Remote",NA,"No","No","No","No","No","No","No","07/31/2013","02/28/2013","09/14/2013"
"CDISCPILOT01","703-1100","AE","Adverse Events","Oedema Peripheral","Recovered/Resolved","LEG EDEMA",10024127,"OEDEMA PERIPHERAL",NA,"HLT_0661",NA,"HLGT_0137",NA,"GENERAL DISORDERS AND ADMINISTRATION SITE CONDITIONS",NA,"GENERAL DISORDERS AND ADMINISTRATION SITE CONDITIONS",10018065,"Moderate Adverse Event","No","Remote",NA,"No","No","No","No","No","No","No","09/14/2013","02/28/2013","09/14/2013"
"CDISCPILOT01","703-1100","AE","Adverse Events","Oedema Peripheral","Not Recovered/not Resolved","LEG EDEMA",10024127,"OEDEMA PERIPHERAL",NA,"HLT_0661",NA,"HLGT_0137",NA,"GENERAL DISORDERS AND ADMINISTRATION SITE CONDITIONS",NA,"GENERAL DISORDERS AND ADMINISTRATION SITE CONDITIONS",10018065,"Mild Adverse Event","No","Remote",NA,"No","No","No","No","No","No","No","07/31/2013","07/17/2013","09/14/2013"
"CDISCPILOT01","703-1100","AE","Adverse Events","Oedema Peripheral","Recovered/Resolved","LEG EDEMA",10024127,"OEDEMA PERIPHERAL",NA,"HLT_0661",NA,"HLGT_0137",NA,"GENERAL DISORDERS AND ADMINISTRATION SITE CONDITIONS",NA,"GENERAL DISORDERS AND ADMINISTRATION SITE CONDITIONS",10018065,"Mild Adverse Event","No","Remote",NA,"No","No","No","No","No","No","No","09/14/2013","07/17/2013","09/14/2013"
"CDISCPILOT01","703-1100","AE","Adverse Events","Upper Respiratory Tract Infection","Recovered/Resolved","UPPER RESPIRATORY INFECTION",10046300,"UPPER RESPIRATORY TRACT INFECTION",NA,"HLT_0520",NA,"HLGT_0489",NA,"INFECTIONS AND INFESTATIONS",NA,"INFECTIONS AND INFESTATIONS",10021881,"Moderate Adverse Event","No","Remote",NA,"No","No","No","No","No","No","No","06/05/2013","05/27/2013","06/03/2013"
"CDISCPILOT01","703-1119","AE","Adverse Events","Application Site Irritation","Not Recovered/not Resolved","APPLICATION SITE IRRITATION",10003046,"APPLICATION SITE IRRITATION",NA,"HLT_0061",NA,"HLGT_0346",NA,"GENERAL DISORDERS AND ADMINISTRATION SITE CONDITIONS",NA,"GENERAL DISORDERS AND ADMINISTRATION SITE CONDITIONS",10018065,"Moderate Adverse Event","No","Probably Related",NA,"No","No","No","No","No","No","No","03/21/2013","03/16/2013",NA
"CDISCPILOT01","703-1119","AE","Adverse Events","Application Site Irritation","Not Recovered/not Resolved","APPLICATION SITE IRRITATION",10003046,"APPLICATION SITE IRRITATION",NA,"HLT_0061",NA,"HLGT_0346",NA,"GENERAL DISORDERS AND ADMINISTRATION SITE CONDITIONS",NA,"GENERAL DISORDERS AND ADMINISTRATION SITE CONDITIONS",10018065,"Severe Adverse Event","No","Probably Related",NA,"No","No","No","No","No","No","No","05/17/2013","03/16/2013",NA
"CDISCPILOT01","703-1119","AE","Adverse Events","Pruritus","Not Recovered/not Resolved","ITCHING",10023084,"PRURITUS",NA,"HLT_0778",NA,"HLGT_0695",NA,"SKIN AND SUBCUTANEOUS TISSUE DISORDERS",NA,"SKIN AND SUBCUTANEOUS TISSUE DISORDERS",10040785,"Moderate Adverse Event","No","Probably Related",NA,"No","No","No","No","No","No","No","05/17/2013","05/04/2013",NA
"CDISCPILOT01","703-1119","AE","Adverse Events","Pruritus","Not Recovered/not Resolved","ITCHING",10023084,"PRURITUS",NA,"HLT_0778",NA,"HLGT_0695",NA,"SKIN AND SUBCUTANEOUS TISSUE DISORDERS",NA,"SKIN AND SUBCUTANEOUS TISSUE DISORDERS",10040785,"Severe Adverse Event","No","Probably Related",NA,"No","No","No","No","No","No","No","06/13/2013","05/04/2013",NA
"CDISCPILOT01","703-1175","AE","Adverse Events","Atrioventricular Block Second Degree","Not Recovered/not Resolved","HEART BLOCK SECOND DEGREE",10019268,"ATRIOVENTRICULAR BLOCK SECOND DEGREE",NA,"HLT_0415",NA,"HLGT_0086",NA,"CARDIAC DISORDERS",NA,"CARDIAC DISORDERS",10007541,"Severe Adverse Event","No","Not Related",NA,"No","No","No","No","No","No","No","12/18/2013","12/18/2013",NA
"CDISCPILOT01","703-1182","AE","Adverse Events","Application Site Erythema","Not Recovered/not Resolved","APPLICATION SITE REDNESS",10003058,"APPLICATION SITE ERYTHEMA",NA,"HLT_0617",NA,"HLGT_0152",NA,"GENERAL DISORDERS AND ADMINISTRATION SITE CONDITIONS",NA,"GENERAL DISORDERS AND ADMINISTRATION SITE CONDITIONS",10018065,"Mild Adverse Event","No","Possibly Related",NA,"No","No","No","No","No","No","No","10/31/2013","10/31/2013",NA
"CDISCPILOT01","703-1182","AE","Adverse Events","Application Site Erythema","Not Recovered/not Resolved","APPLICATION SITE REDNESS",10003058,"APPLICATION SITE ERYTHEMA",NA,"HLT_0617",NA,"HLGT_0152",NA,"GENERAL DISORDERS AND ADMINISTRATION SITE CONDITIONS",NA,"GENERAL DISORDERS AND ADMINISTRATION SITE CONDITIONS",10018065,"Moderate Adverse Event","No","Possibly Related",NA,"No","No","No","No","No","No","No","11/28/2013","10/31/2013",NA
"CDISCPILOT01","703-1182","AE","Adverse Events","Somnolence","Not Recovered/not Resolved","DROWSINESS",10013649,"SOMNOLENCE",NA,"HLT_0160",NA,"HLGT_0254",NA,"NERVOUS SYSTEM DISORDERS",NA,"NERVOUS SYSTEM DISORDERS",10029205,"Mild Adverse Event","No","Remote",NA,"No","No","No","No","No","No","No","11/28/2013","11/22/2013",NA
"CDISCPILOT01","703-1182","AE","Adverse Events","Somnolence","Not Recovered/not Resolved","DROWSINESS",10013649,"SOMNOLENCE",NA,"HLT_0160",NA,"HLGT_0254",NA,"NERVOUS SYSTEM DISORDERS",NA,"NERVOUS SYSTEM DISORDERS",10029205,"Moderate Adverse Event","No","Remote",NA,"No","No","No","No","No","No","No","12/12/2013","11/22/2013",NA
"CDISCPILOT01","703-1210","AE","Adverse Events","Decreased Appetite","Not Recovered/not Resolved","DECREASED APPETITE",10061428,"DECREASED APPETITE",NA,"HLT_0574",NA,"HLGT_0231",NA,"METABOLISM AND NUTRITION DISORDERS",NA,"METABOLISM AND NUTRITION DISORDERS",10027433,"Mild Adverse Event","No","Possibly Related",NA,"No","No","No","No","No","No","No","05/10/2013","05/04/2013",NA
"CDISCPILOT01","703-1210","AE","Adverse Events","Decreased Appetite","Not Recovered/not Resolved","DECREASED APPETITE",10061428,"DECREASED APPETITE",NA,"HLT_0574",NA,"HLGT_0231",NA,"METABOLISM AND NUTRITION DISORDERS",NA,"METABOLISM AND NUTRITION DISORDERS",10027433,"Moderate Adverse Event","No","Possibly Related",NA,"No","No","No","No","No","No","No","08/24/2013","05/04/2013",NA
"CDISCPILOT01","703-1210","AE","Adverse Events","Disorientation","Not Recovered/not Resolved","DISORIENTATION",10013395,"DISORIENTATION",NA,"HLT_0299",NA,"HLGT_0307",NA,"PSYCHIATRIC DISORDERS",NA,"PSYCHIATRIC DISORDERS",10037175,"Mild Adverse Event","No","Remote",NA,"No","No","No","No","No","No","No","04/12/2013","04/02/2013",NA
"CDISCPILOT01","703-1258","AE","Adverse Events","Application Site Dermatitis","Not Recovered/not Resolved","APPLICATION SITE RASH",10003054,"APPLICATION SITE DERMATITIS",NA,"HLT_0343",NA,"HLGT_0241",NA,"GENERAL DISORDERS AND ADMINISTRATION SITE CONDITIONS",NA,"GENERAL DISORDERS AND ADMINISTRATION SITE CONDITIONS",10018065,"Mild Adverse Event","No","Probably Related",NA,"No","No","No","No","No","No","No","09/04/2012","09/04/2012","01/25/2013"
"CDISCPILOT01","703-1258","AE","Adverse Events","Application Site Dermatitis","Not Recovered/not Resolved","APPLICATION SITE RASH",10003054,"APPLICATION SITE DERMATITIS",NA,"HLT_0343",NA,"HLGT_0241",NA,"GENERAL DISORDERS AND ADMINISTRATION SITE CONDITIONS",NA,"GENERAL DISORDERS AND ADMINISTRATION SITE CONDITIONS",10018065,"Moderate Adverse Event","No","Probably Related",NA,"No","No","No","No","No","No","No","09/14/2012","09/04/2012","01/25/2013"
"CDISCPILOT01","703-1258","AE","Adverse Events","Application Site Dermatitis","Recovered/Resolved","APPLICATION SITE RASH",10003054,"APPLICATION SITE DERMATITIS",NA,"HLT_0343",NA,"HLGT_0241",NA,"GENERAL DISORDERS AND ADMINISTRATION SITE CONDITIONS",NA,"GENERAL DISORDERS AND ADMINISTRATION SITE CONDITIONS",10018065,"Mild Adverse Event","No","Probably Related",NA,"No","No","No","No","No","No","No","01/28/2013","09/04/2012","01/25/2013"
"CDISCPILOT01","703-1258","AE","Adverse Events","Dizziness","Not Recovered/not Resolved","DIZZINESS",10013573,"DIZZINESS",NA,"HLT_0619",NA,"HLGT_0751",NA,"NERVOUS SYSTEM DISORDERS",NA,"NERVOUS SYSTEM DISORDERS",10029205,"Moderate Adverse Event","No","Not Related",NA,"No","No","No","No","No","No","No","09/04/2012","2001",NA
"CDISCPILOT01","703-1258","AE","Adverse Events","Dizziness","Not Recovered/not Resolved","DIZZINESS",10013573,"DIZZINESS",NA,"HLT_0619",NA,"HLGT_0751",NA,"NERVOUS SYSTEM DISORDERS",NA,"NERVOUS SYSTEM DISORDERS",10029205,"Mild Adverse Event","No","Not Related",NA,"No","No","No","No","No","No","No","09/14/2012","2001",NA
"CDISCPILOT01","703-1258","AE","Adverse Events","Upper Respiratory Tract Infection","Not Recovered/not Resolved","UPPER RESPIRATORY INFECTION",10046300,"UPPER RESPIRATORY TRACT INFECTION",NA,"HLT_0520",NA,"HLGT_0489",NA,"INFECTIONS AND INFESTATIONS",NA,"INFECTIONS AND INFESTATIONS",10021881,"Mild Adverse Event","No","Not Related",NA,"No","No","No","No","No","No","No","08/17/2012","08/11/2012","08/19/2012"
"CDISCPILOT01","703-1258","AE","Adverse Events","Upper Respiratory Tract Infection","Recovered/Resolved","UPPER RESPIRATORY INFECTION",10046300,"UPPER RESPIRATORY TRACT INFECTION",NA,"HLT_0520",NA,"HLGT_0489",NA,"INFECTIONS AND INFESTATIONS",NA,"INFECTIONS AND INFESTATIONS",10021881,"Mild Adverse Event","No","Not Related",NA,"No","No","No","No","No","No","No","09/04/2012","08/11/2012","08/19/2012"
"CDISCPILOT01","703-1295","AE","Adverse Events","Arthritis","Not Recovered/not Resolved","ARTHRITIS",10003246,"ARTHRITIS",NA,"HLT_0019",NA,"HLGT_0587",NA,"MUSCULOSKELETAL AND CONNECTIVE TISSUE DISORDERS",NA,"MUSCULOSKELETAL AND CONNECTIVE TISSUE DISORDERS",10028395,"Moderate Adverse Event","No","Not Related",NA,"No","No","No","No","No","No","No","01/01/2014","12/28/2013",NA
"CDISCPILOT01","703-1299","AE","Adverse Events","Glaucoma","Not Recovered/not Resolved","GLAUCOMA",10018304,"GLAUCOMA",NA,"HLT_0556",NA,"HLGT_0734",NA,"EYE DISORDERS",NA,"EYE DISORDERS",10015919,"Moderate Adverse Event","No","Not Related",NA,"No","No","No","No","No","No","No","03/01/2013","1992",NA
"CDISCPILOT01","703-1299","AE","Adverse Events","Hypotension","Not Recovered/not Resolved","HYPOTENSION",10021097,"HYPOTENSION",NA,"HLT_0761",NA,"HLGT_0412",NA,"VASCULAR DISORDERS",NA,"VASCULAR DISORDERS",10047065,"Mild Adverse Event","No","Remote",NA,"No","No","No","No","No","No","No","03/01/2013","03/01/2013",NA
"CDISCPILOT01","703-1299","AE","Adverse Events","Hypotension","Not Recovered/not Resolved","HYPOTENSION",10021097,"HYPOTENSION",NA,"HLT_0761",NA,"HLGT_0412",NA,"VASCULAR DISORDERS",NA,"VASCULAR DISORDERS",10047065,"Moderate Adverse Event","No","Remote",NA,"No","No","No","No","No","No","No","03/13/2013","03/01/2013",NA
"CDISCPILOT01","703-1299","AE","Adverse Events","Myocardial Infarction","Not Recovered/not Resolved","MYOCARDIAL INFARCTION",10028596,"MYOCARDIAL INFARCTION",NA,"HLT_0649",NA,"HLGT_0688",NA,"CARDIAC DISORDERS",NA,"CARDIAC DISORDERS",10007541,"Moderate Adverse Event","No","Remote",NA,"No","No","No","No","No","No","No","03/13/2013","03/13/2013",NA
"CDISCPILOT01","703-1299","AE","Adverse Events","Tachycardia","Not Recovered/not Resolved","TACHYCARDIA",10043071,"TACHYCARDIA",NA,"HLT_0082",NA,"HLGT_0574",NA,"CARDIAC DISORDERS",NA,"CARDIAC DISORDERS",10007541,"Mild Adverse Event","No","Remote",NA,"No","No","No","No","No","No","No","03/01/2013","03/01/2013",NA
"CDISCPILOT01","703-1299","AE","Adverse Events","Tachycardia","Not Recovered/not Resolved","TACHYCARDIA",10043071,"TACHYCARDIA",NA,"HLT_0082",NA,"HLGT_0574",NA,"CARDIAC DISORDERS",NA,"CARDIAC DISORDERS",10007541,"Moderate Adverse Event","No","Remote",NA,"No","No","No","No","No","No","No","03/13/2013","03/01/2013",NA
"CDISCPILOT01","703-1299","AE","Adverse Events","Upper Respiratory Tract Infection","Not Recovered/not Resolved","UPPER RESPIRATORY INFECTION",10046300,"UPPER RESPIRATORY TRACT INFECTION",NA,"HLT_0520",NA,"HLGT_0489",NA,"INFECTIONS AND INFESTATIONS",NA,"INFECTIONS AND INFESTATIONS",10021881,"Mild Adverse Event","No","Not Related",NA,"No","No","No","No","No","No","No","09/28/2012","09/27/2012","10/06/2012"
"CDISCPILOT01","703-1299","AE","Adverse Events","Upper Respiratory Tract Infection","Recovered/Resolved","UPPER RESPIRATORY INFECTION",10046300,"UPPER RESPIRATORY TRACT INFECTION",NA,"HLT_0520",NA,"HLGT_0489",NA,"INFECTIONS AND INFESTATIONS",NA,"INFECTIONS AND INFESTATIONS",10021881,"Mild Adverse Event","No","Not Related",NA,"No","No","No","No","No","No","No","10/10/2012","09/27/2012","10/06/2012"
"CDISCPILOT01","703-1335","AE","Adverse Events","Atrioventricular Block Second Degree","Not Recovered/not Resolved","AV BLOCK SECOND DEGREE",10003851,"ATRIOVENTRICULAR BLOCK SECOND DEGREE",NA,"HLT_0415",NA,"HLGT_0086",NA,"CARDIAC DISORDERS",NA,"CARDIAC DISORDERS",10007541,"Mild Adverse Event","No","Not Related",NA,"No","No","No","No","No","No","No","03/15/2014","03/15/2014","03/30/2014"
"CDISCPILOT01","703-1335","AE","Adverse Events","Atrioventricular Block Second Degree","Recovered/Resolved","AV BLOCK SECOND DEGREE",10003851,"ATRIOVENTRICULAR BLOCK SECOND DEGREE",NA,"HLT_0415",NA,"HLGT_0086",NA,"CARDIAC DISORDERS",NA,"CARDIAC DISORDERS",10007541,"Mild Adverse Event","No","Not Related",NA,"No","No","No","No","No","No","No","03/31/2014","03/15/2014","03/30/2014"
"CDISCPILOT01","703-1403","AE","Adverse Events","Chest Discomfort","Recovered/Resolved","CHEST TIGHTNESS",10008492,"CHEST DISCOMFORT",NA,"HLT_0593",NA,"HLGT_0441",NA,"GENERAL DISORDERS AND ADMINISTRATION SITE CONDITIONS",NA,"GENERAL DISORDERS AND ADMINISTRATION SITE CONDITIONS",10018065,"Mild Adverse Event","No","Probably Related",NA,"No","No","No","No","No","No","No","12/19/2012","12/15/2012","12/16/2012"
"CDISCPILOT01","703-1403","AE","Adverse Events","Diarrhoea","Recovered/Resolved","DIARRHEA",10012727,"DIARRHOEA",NA,"HLT_0148",NA,"HLGT_0588",NA,"GASTROINTESTINAL DISORDERS",NA,"GASTROINTESTINAL DISORDERS",10017947,"Moderate Adverse Event","No","Probably Related",NA,"No","No","No","No","No","No","No","12/19/2012","12/13/2012","12/14/2012"
"CDISCPILOT01","703-1403","AE","Adverse Events","Vomiting","Recovered/Resolved","VOMITING",10047700,"VOMITING",NA,"HLT_0016",NA,"HLGT_0350",NA,"GASTROINTESTINAL DISORDERS",NA,"GASTROINTESTINAL DISORDERS",10017947,"Moderate Adverse Event","No","Probably Related",NA,"No","No","No","No","No","No","No","12/19/2012","12/13/2012","12/14/2012"
"CDISCPILOT01","703-1403","AE","Adverse Events","Weight Decreased","Not Recovered/not Resolved","WEIGHT LOSS",10047900,"WEIGHT DECREASED",NA,"HLT_0158",NA,"HLGT_0778",NA,"INVESTIGATIONS",NA,"INVESTIGATIONS",10022891,"Moderate Adverse Event","No","Not Related",NA,"No","No","No","No","No","No","No","12/19/2012","12/12/2012","12/19/2012"
"CDISCPILOT01","703-1403","AE","Adverse Events","Weight Decreased","Recovered/Resolved","WEIGHT LOSS",10047900,"WEIGHT DECREASED",NA,"HLT_0158",NA,"HLGT_0778",NA,"INVESTIGATIONS",NA,"INVESTIGATIONS",10022891,"Moderate Adverse Event","No","Not Related",NA,"No","No","No","No","No","No","No","01/08/2013","12/12/2012","12/19/2012"
"CDISCPILOT01","703-1439","AE","Adverse Events","Application Site Irritation","Not Recovered/not Resolved","APPLICATION SITE IRRITATION",10003046,"APPLICATION SITE IRRITATION",NA,"HLT_0061",NA,"HLGT_0346",NA,"GENERAL DISORDERS AND ADMINISTRATION SITE CONDITIONS",NA,"GENERAL DISORDERS AND ADMINISTRATION SITE CONDITIONS",10018065,"Mild Adverse Event","No","Probably Related",NA,"No","No","No","No","No","No","No","05/05/2014","04/24/2014",NA
"CDISCPILOT01","703-1439","AE","Adverse Events","Application Site Irritation","Not Recovered/not Resolved","APPLICATION SITE IRRITATION",10003046,"APPLICATION SITE IRRITATION",NA,"HLT_0061",NA,"HLGT_0346",NA,"GENERAL DISORDERS AND ADMINISTRATION SITE CONDITIONS",NA,"GENERAL DISORDERS AND ADMINISTRATION SITE CONDITIONS",10018065,"Moderate Adverse Event","No","Probably Related",NA,"No","No","No","No","No","No","No","06/30/2014","04/24/2014",NA
"CDISCPILOT01","704-1008","AE","Adverse Events","Hyperhidrosis","Not Recovered/not Resolved","SWEATING INCREASED",10042667,"HYPERHIDROSIS",NA,"HLT_0587",NA,"HLGT_0005",NA,"SKIN AND SUBCUTANEOUS TISSUE DISORDERS",NA,"SKIN AND SUBCUTANEOUS TISSUE DISORDERS",10040785,"Mild Adverse Event","No","Possibly Related",NA,"No","No","No","No","No","No","No","02/09/2013","01/30/2013",NA
"CDISCPILOT01","704-1008","AE","Adverse Events","Sinus Bradycardia","Not Recovered/not Resolved","SINUS BRADYCARDIA",10040741,"SINUS BRADYCARDIA",NA,"HLT_0644",NA,"HLGT_0500",NA,"CARDIAC DISORDERS",NA,"CARDIAC DISORDERS",10007541,"Moderate Adverse Event","No","Not Related",NA,"No","No","No","No","No","No","No","02/25/2013","02/25/2013",NA
"CDISCPILOT01","704-1008","AE","Adverse Events","Transient Ischaemic Attack","Recovered/Resolved","TRANSIENT ISCHEMIC ATTACKS",10044391,"TRANSIENT ISCHAEMIC ATTACK",NA,"HLT_0041",NA,"HLGT_0433",NA,"NERVOUS SYSTEM DISORDERS",NA,"NERVOUS SYSTEM DISORDERS",10029205,"Severe Adverse Event","No","Not Related",NA,"No","No","No","No","Yes","No","No","02/25/2013","02/21/2013","02/21/2013"
"CDISCPILOT01","704-1009","AE","Adverse Events","Dizziness","Not Recovered/not Resolved","DIZZINESS",10013573,"DIZZINESS",NA,"HLT_0619",NA,"HLGT_0751",NA,"NERVOUS SYSTEM DISORDERS",NA,"NERVOUS SYSTEM DISORDERS",10029205,"Mild Adverse Event","No","Remote",NA,"No","No","No","No","No","No","No","10/02/2013","09/17/2013",NA
"CDISCPILOT01","704-1009","AE","Adverse Events","Fatigue","Not Recovered/not Resolved","FATIGUE",10016256,"FATIGUE",NA,"HLT_0043",NA,"HLGT_0181",NA,"GENERAL DISORDERS AND ADMINISTRATION SITE CONDITIONS",NA,"GENERAL DISORDERS AND ADMINISTRATION SITE CONDITIONS",10018065,"Mild Adverse Event","No","Remote",NA,"No","No","No","No","No","No","No","09/14/2013","09/05/2013",NA
"CDISCPILOT01","704-1009","AE","Adverse Events","Malaise","Not Recovered/not Resolved","MALAISE",10025482,"MALAISE",NA,"HLT_0456",NA,"HLGT_0178",NA,"GENERAL DISORDERS AND ADMINISTRATION SITE CONDITIONS",NA,"GENERAL DISORDERS AND ADMINISTRATION SITE CONDITIONS",10018065,"Mild Adverse Event","No","Possibly Related",NA,"No","No","No","No","No","No","No","09/14/2013","09/05/2013","09/27/2013"
"CDISCPILOT01","704-1009","AE","Adverse Events","Malaise","Recovered/Resolved","MALAISE",10025482,"MALAISE",NA,"HLT_0456",NA,"HLGT_0178",NA,"GENERAL DISORDERS AND ADMINISTRATION SITE CONDITIONS",NA,"GENERAL DISORDERS AND ADMINISTRATION SITE CONDITIONS",10018065,"Mild Adverse Event","No","Possibly Related",NA,"No","No","No","No","No","No","No","10/02/2013","09/05/2013","09/27/2013"
"CDISCPILOT01","704-1009","AE","Adverse Events","Nausea","Recovered/Resolved","NAUSEA",10028813,"NAUSEA",NA,"HLT_0742",NA,"HLGT_0326",NA,"GASTROINTESTINAL DISORDERS",NA,"GASTROINTESTINAL DISORDERS",10017947,"Mild Adverse Event","No","Possibly Related",NA,"No","No","No","No","No","No","No","10/02/2013","09/22/2013","09/23/2013"
"CDISCPILOT01","704-1009","AE","Adverse Events","Rash","Not Recovered/not Resolved","RASH",10037844,"RASH",NA,"HLT_0762",NA,"HLGT_0198",NA,"SKIN AND SUBCUTANEOUS TISSUE DISORDERS",NA,"SKIN AND SUBCUTANEOUS TISSUE DISORDERS",10040785,"Mild Adverse Event","No","Possibly Related",NA,"No","No","No","No","No","No","No","09/14/2013","09/14/2013",NA
"CDISCPILOT01","704-1010","AE","Adverse Events","Arthralgia","Not Recovered/not Resolved","KNEE PAIN",10023477,"ARTHRALGIA",NA,"HLT_0375",NA,"HLGT_0610",NA,"MUSCULOSKELETAL AND CONNECTIVE TISSUE DISORDERS",NA,"MUSCULOSKELETAL AND CONNECTIVE TISSUE DISORDERS",10028395,"Mild Adverse Event","No","Not Related",NA,"No","No","No","No","No","No","No","07/09/2014","07/06/2014",NA
"CDISCPILOT01","704-1010","AE","Adverse Events","Contusion","Not Recovered/not Resolved","BRUISE OF HEAD",10006503,"CONTUSION",NA,"HLT_0713",NA,"HLGT_0381",NA,"INJURY, POISONING AND PROCEDURAL COMPLICATIONS",NA,"INJURY, POISONING AND PROCEDURAL COMPLICATIONS",10022117,"Mild Adverse Event","No","Not Related",NA,"No","No","No","No","No","No","No","07/09/2014","07/06/2014",NA
"CDISCPILOT01","704-1010","AE","Adverse Events","Cystitis","Recovered/Resolved","BLADDER INFECTION",10005047,"CYSTITIS",NA,"HLT_0739",NA,"HLGT_0129",NA,"INFECTIONS AND INFESTATIONS",NA,"INFECTIONS AND INFESTATIONS",10021881,"Mild Adverse Event","No","Not Related",NA,"No","No","No","No","No","No","No","03/08/2014","02/27/2014","03/06/2014"
"CDISCPILOT01","704-1010","AE","Adverse Events","Diarrhoea","Recovered/Resolved","DIARRHEA",10012727,"DIARRHOEA",NA,"HLT_0148",NA,"HLGT_0588",NA,"GASTROINTESTINAL DISORDERS",NA,"GASTROINTESTINAL DISORDERS",10017947,"Mild Adverse Event","No","Not Related",NA,"No","No","No","No","No","No","No","07/09/2014","07/05/2014","07/06/2014"
"CDISCPILOT01","704-1010","AE","Adverse Events","Excoriation","Not Recovered/not Resolved","ABRASION NOS",10000245,"EXCORIATION",NA,"HLT_0738",NA,"HLGT_0511",NA,"INJURY, POISONING AND PROCEDURAL COMPLICATIONS",NA,"INJURY, POISONING AND PROCEDURAL COMPLICATIONS",10022117,"Mild Adverse Event","No","Not Related",NA,"No","No","No","No","No","No","No","07/09/2014","07/06/2014",NA
"CDISCPILOT01","704-1010","AE","Adverse Events","Skin Laceration","Not Recovered/not Resolved","SKIN TEAR",10048704,"SKIN LACERATION",NA,"HLT_0075",NA,"HLGT_0118",NA,"INJURY, POISONING AND PROCEDURAL COMPLICATIONS",NA,"INJURY, POISONING AND PROCEDURAL COMPLICATIONS",10022117,"Mild Adverse Event","No","Not Related",NA,"No","No","No","No","No","No","No","07/09/2014","07/06/2014",NA
"CDISCPILOT01","704-1010","AE","Adverse Events","Vomiting","Recovered/Resolved","VOMITING",10047700,"VOMITING",NA,"HLT_0016",NA,"HLGT_0350",NA,"GASTROINTESTINAL DISORDERS",NA,"GASTROINTESTINAL DISORDERS",10017947,"Mild Adverse Event","No","Not Related",NA,"No","No","No","No","No","No","No","07/09/2014","07/05/2014","07/06/2014"
"CDISCPILOT01","704-1017","AE","Adverse Events","Cardiac Disorder","Not Recovered/not Resolved","CARDIAC DISORDER",10061024,"CARDIAC DISORDER",NA,"HLT_0507",NA,"HLGT_0126",NA,"CARDIAC DISORDERS",NA,"CARDIAC DISORDERS",10007541,"Mild Adverse Event","No","Not Related",NA,"No","No","No","No","No","No","No","11/09/2013","11/01/2013",NA
"CDISCPILOT01","704-1017","AE","Adverse Events","Influenza","Recovered/Resolved","FLU",10016790,"INFLUENZA",NA,"HLT_0125",NA,"HLGT_0081",NA,"INFECTIONS AND INFESTATIONS",NA,"INFECTIONS AND INFESTATIONS",10021881,"Mild Adverse Event","No","Not Related",NA,"No","No","No","No","No","No","No","11/09/2013","11/01/2013","11/08/2013"
"CDISCPILOT01","704-1017","AE","Adverse Events","Myocardial Infarction","Not Recovered/not Resolved","MYOCARDIAL INFARCTION",10028596,"MYOCARDIAL INFARCTION",NA,"HLT_0649",NA,"HLGT_0688",NA,"CARDIAC DISORDERS",NA,"CARDIAC DISORDERS",10007541,"Mild Adverse Event","No","Not Related",NA,"No","No","No","No","No","No","No","10/19/2013","10/19/2013",NA
"CDISCPILOT01","704-1017","AE","Adverse Events","Pruritus","Not Recovered/not Resolved","ITCHING",10023084,"PRURITUS",NA,"HLT_0778",NA,"HLGT_0695",NA,"SKIN AND SUBCUTANEOUS TISSUE DISORDERS",NA,"SKIN AND SUBCUTANEOUS TISSUE DISORDERS",10040785,"Mild Adverse Event","No","Probably Related",NA,"No","No","No","No","No","No","No","11/09/2013","11/05/2013","11/22/2013"
"CDISCPILOT01","704-1017","AE","Adverse Events","Pruritus","Recovered/Resolved","ITCHING",10023084,"PRURITUS",NA,"HLT_0778",NA,"HLGT_0695",NA,"SKIN AND SUBCUTANEOUS TISSUE DISORDERS",NA,"SKIN AND SUBCUTANEOUS TISSUE DISORDERS",10040785,"Mild Adverse Event","No","Probably Related",NA,"No","No","No","No","No","No","No","11/24/2013","11/05/2013","11/22/2013"
"CDISCPILOT01","704-1017","AE","Adverse Events","Rash","Not Recovered/not Resolved","RASH",10037844,"RASH",NA,"HLT_0762",NA,"HLGT_0198",NA,"SKIN AND SUBCUTANEOUS TISSUE DISORDERS",NA,"SKIN AND SUBCUTANEOUS TISSUE DISORDERS",10040785,"Mild Adverse Event","No","Probably Related",NA,"No","No","No","No","No","No","No","11/09/2013","11/05/2013","11/22/2013"
"CDISCPILOT01","704-1017","AE","Adverse Events","Rash","Recovered/Resolved","RASH",10037844,"RASH",NA,"HLT_0762",NA,"HLGT_0198",NA,"SKIN AND SUBCUTANEOUS TISSUE DISORDERS",NA,"SKIN AND SUBCUTANEOUS TISSUE DISORDERS",10040785,"Mild Adverse Event","No","Probably Related",NA,"No","No","No","No","No","No","No","11/24/2013","11/05/2013","11/22/2013"
"CDISCPILOT01","704-1017","AE","Adverse Events","Ventricular Septal Defect","Not Recovered/not Resolved","VENTRICULAR SEPTAL DEFECT",10047298,"VENTRICULAR SEPTAL DEFECT",NA,"HLT_0589",NA,"HLGT_0747",NA,"CONGENITAL, FAMILIAL AND GENETIC DISORDERS",NA,"CONGENITAL, FAMILIAL AND GENETIC DISORDERS",10010331,"Mild Adverse Event","No","Not Related",NA,"No","No","No","No","No","No","No","10/19/2013","10/19/2013",NA
"CDISCPILOT01","704-1025","AE","Adverse Events","Electrocardiogram St Segment Depression","Not Recovered/not Resolved","ST SEGMENT DEPRESSED",10041891,"ELECTROCARDIOGRAM ST SEGMENT DEPRESSION",NA,"HLT_0610",NA,"HLGT_0220",NA,"INVESTIGATIONS",NA,"INVESTIGATIONS",10022891,"Mild Adverse Event","No","Possibly Related",NA,"No","No","No","No","No","No","No","10/11/2013","10/11/2013","10/25/2013"
"CDISCPILOT01","704-1025","AE","Adverse Events","Electrocardiogram St Segment Depression","Recovered/Resolved","ST SEGMENT DEPRESSED",10041891,"ELECTROCARDIOGRAM ST SEGMENT DEPRESSION",NA,"HLT_0610",NA,"HLGT_0220",NA,"INVESTIGATIONS",NA,"INVESTIGATIONS",10022891,"Mild Adverse Event","No","Possibly Related",NA,"No","No","No","No","No","No","No","11/29/2013","10/11/2013","10/25/2013"
"CDISCPILOT01","704-1025","AE","Adverse Events","Palpitations","Recovered/Resolved","PALPITATIONS",10033557,"PALPITATIONS",NA,"HLT_0493",NA,"HLGT_0593",NA,"CARDIAC DISORDERS",NA,"CARDIAC DISORDERS",10007541,"Moderate Adverse Event","No","Remote",NA,"No","No","No","No","No","No","No","10/11/2013","09/28/2013","09/30/2013"
"CDISCPILOT01","704-1025","AE","Adverse Events","Vertigo","Recovered/Resolved","VERTIGO",10047340,"VERTIGO",NA,"HLT_0255",NA,"HLGT_0147",NA,"EAR AND LABYRINTH DISORDERS",NA,"EAR AND LABYRINTH DISORDERS",10013993,"Moderate Adverse Event","No","Possibly Related",NA,"No","No","No","No","No","No","No","10/11/2013","09/28/2013","09/30/2013"
"CDISCPILOT01","704-1025","AE","Adverse Events","Wolff-Parkinson-White Syndrome","Not Recovered/not Resolved","WOLFF-PARKINSON-WHITE SYNDROME",10048015,"WOLFF-PARKINSON-WHITE SYNDROME",NA,"HLT_0612",NA,"HLGT_0218",NA,"CARDIAC DISORDERS",NA,"CARDIAC DISORDERS",10007541,"Mild Adverse Event","No","Possibly Related",NA,"No","No","No","No","No","No","No","10/25/2013","10/25/2013","11/29/2013"
"CDISCPILOT01","704-1025","AE","Adverse Events","Wolff-Parkinson-White Syndrome","Recovered/Resolved","WOLFF-PARKINSON-WHITE SYNDROME",10048015,"WOLFF-PARKINSON-WHITE SYNDROME",NA,"HLT_0612",NA,"HLGT_0218",NA,"CARDIAC DISORDERS",NA,"CARDIAC DISORDERS",10007541,"Mild Adverse Event","No","Possibly Related",NA,"No","No","No","No","No","No","No","11/29/2013","10/25/2013","11/29/2013"
"CDISCPILOT01","704-1065","AE","Adverse Events","Abdominal Discomfort","Not Recovered/not Resolved","ABDOMINAL DISCOMFORT",10000059,"ABDOMINAL DISCOMFORT",NA,"HLT_0012",NA,"HLGT_0332",NA,"GASTROINTESTINAL DISORDERS",NA,"GASTROINTESTINAL DISORDERS",10017947,"Mild Adverse Event","No","Remote",NA,"No","No","No","No","No","No","No","11/07/2013","10/26/2013",NA
"CDISCPILOT01","704-1065","AE","Adverse Events","Application Site Irritation","Not Recovered/not Resolved","APPLICATION SITE BURNING",10048942,"APPLICATION SITE IRRITATION",NA,"HLT_0061",NA,"HLGT_0346",NA,"GENERAL DISORDERS AND ADMINISTRATION SITE CONDITIONS",NA,"GENERAL DISORDERS AND ADMINISTRATION SITE CONDITIONS",10018065,"Mild Adverse Event","No","Probably Related",NA,"No","No","No","No","No","No","No","11/25/2013","11/09/2013",NA
"CDISCPILOT01","704-1065","AE","Adverse Events","Application Site Pruritus","Not Recovered/not Resolved","APPLICATION SITE ITCHING",10003047,"APPLICATION SITE PRURITUS",NA,"HLT_0317",NA,"HLGT_0338",NA,"GENERAL DISORDERS AND ADMINISTRATION SITE CONDITIONS",NA,"GENERAL DISORDERS AND ADMINISTRATION SITE CONDITIONS",10018065,"Moderate Adverse Event","No","Probably Related",NA,"No","No","No","No","No","No","No","11/07/2013","10/27/2013",NA
"CDISCPILOT01","704-1065","AE","Adverse Events","Chills","Recovered/Resolved","CHILLS",10008531,"CHILLS",NA,"HLT_0586",NA,"HLGT_0161",NA,"GENERAL DISORDERS AND ADMINISTRATION SITE CONDITIONS",NA,"GENERAL DISORDERS AND ADMINISTRATION SITE CONDITIONS",10018065,"Mild Adverse Event","No","Remote",NA,"No","No","No","No","No","No","No","11/25/2013","11/17/2013","11/17/2013"
"CDISCPILOT01","704-1065","AE","Adverse Events","Diarrhoea","Recovered/Resolved","DIARRHEA",10012727,"DIARRHOEA",NA,"HLT_0148",NA,"HLGT_0588",NA,"GASTROINTESTINAL DISORDERS",NA,"GASTROINTESTINAL DISORDERS",10017947,"Mild Adverse Event","No","Remote",NA,"No","No","No","No","No","No","No","12/20/2013","12/15/2013","12/15/2013"
"CDISCPILOT01","704-1065","AE","Adverse Events","Dizziness","Recovered/Resolved","DIZZINESS",10013573,"DIZZINESS",NA,"HLT_0619",NA,"HLGT_0751",NA,"NERVOUS SYSTEM DISORDERS",NA,"NERVOUS SYSTEM DISORDERS",10029205,"Mild Adverse Event","No","Remote",NA,"No","No","No","No","No","No","No","11/25/2013","11/17/2013","11/17/2013"
"CDISCPILOT01","704-1065","AE","Adverse Events","Hyperhidrosis","Not Recovered/not Resolved","PERSPIRATION EXCESSIVE",10034734,"HYPERHIDROSIS",NA,"HLT_0587",NA,"HLGT_0005",NA,"SKIN AND SUBCUTANEOUS TISSUE DISORDERS",NA,"SKIN AND SUBCUTANEOUS TISSUE DISORDERS",10040785,"Mild Adverse Event","No","Possibly Related",NA,"No","No","No","No","No","No","No","11/25/2013","11/09/2013",NA
"CDISCPILOT01","704-1065","AE","Adverse Events","Malaise","Not Recovered/not Resolved","MALAISE",10025482,"MALAISE",NA,"HLT_0456",NA,"HLGT_0178",NA,"GENERAL DISORDERS AND ADMINISTRATION SITE CONDITIONS",NA,"GENERAL DISORDERS AND ADMINISTRATION SITE CONDITIONS",10018065,"Mild Adverse Event","No","Possibly Related",NA,"No","No","No","No","No","No","No","11/25/2013","11/09/2013",NA
"CDISCPILOT01","704-1065","AE","Adverse Events","Rash","Not Recovered/not Resolved","RASH",10037844,"RASH",NA,"HLT_0762",NA,"HLGT_0198",NA,"SKIN AND SUBCUTANEOUS TISSUE DISORDERS",NA,"SKIN AND SUBCUTANEOUS TISSUE DISORDERS",10040785,"Mild Adverse Event","No","Probably Related",NA,"No","No","No","No","No","No","No","11/07/2013","10/27/2013",NA
"CDISCPILOT01","704-1065","AE","Adverse Events","Sinus Bradycardia","Not Recovered/not Resolved","BRADYCARDIA SINUS",10006098,"SINUS BRADYCARDIA",NA,"HLT_0644",NA,"HLGT_0500",NA,"CARDIAC DISORDERS",NA,"CARDIAC DISORDERS",10007541,"Mild Adverse Event","No","Not Related",NA,"No","No","No","No","No","No","No","12/24/2013","12/24/2013",NA
"CDISCPILOT01","704-1074","AE","Adverse Events","Erythema","Not Recovered/not Resolved","SKIN RED",10040916,"ERYTHEMA",NA,"HLT_0284",NA,"HLGT_0192",NA,"SKIN AND SUBCUTANEOUS TISSUE DISORDERS",NA,"SKIN AND SUBCUTANEOUS TISSUE DISORDERS",10040785,"Mild Adverse Event","No","Probably Related",NA,"No","No","No","No","No","No","No","02/09/2014","02/09/2014",NA
"CDISCPILOT01","704-1074","AE","Adverse Events","Pruritus","Not Recovered/not Resolved","ITCHING",10023084,"PRURITUS",NA,"HLT_0778",NA,"HLGT_0695",NA,"SKIN AND SUBCUTANEOUS TISSUE DISORDERS",NA,"SKIN AND SUBCUTANEOUS TISSUE DISORDERS",10040785,"Mild Adverse Event","No","Probably Related",NA,"No","No","No","No","No","No","No","01/22/2014","01/22/2014",NA
"CDISCPILOT01","704-1093","AE","Adverse Events","Blood Glucose Increased","Not Recovered/not Resolved","GLUCOSE INCREASED",10018421,"BLOOD GLUCOSE INCREASED",NA,"HLT_0450",NA,"HLGT_0188",NA,"INVESTIGATIONS",NA,"INVESTIGATIONS",10022891,"Mild Adverse Event","No","Not Related",NA,"No","No","No","No","No","No","No","03/30/2013","03/30/2013","04/13/2013"
"CDISCPILOT01","704-1093","AE","Adverse Events","Blood Glucose Increased","Recovered/Resolved","GLUCOSE INCREASED",10018421,"BLOOD GLUCOSE INCREASED",NA,"HLT_0450",NA,"HLGT_0188",NA,"INVESTIGATIONS",NA,"INVESTIGATIONS",10022891,"Mild Adverse Event","No","Not Related",NA,"No","No","No","No","No","No","No","04/17/2013","03/30/2013","04/13/2013"
"CDISCPILOT01","704-1093","AE","Adverse Events","Pruritus","Not Recovered/not Resolved","ITCHING",10023084,"PRURITUS",NA,"HLT_0778",NA,"HLGT_0695",NA,"SKIN AND SUBCUTANEOUS TISSUE DISORDERS",NA,"SKIN AND SUBCUTANEOUS TISSUE DISORDERS",10040785,"Mild Adverse Event","No","Probably Related",NA,"No","No","No","No","No","No","No","05/11/2013","05/04/2013",NA
"CDISCPILOT01","704-1093","AE","Adverse Events","Rash","Not Recovered/not Resolved","RASH",10037844,"RASH",NA,"HLT_0762",NA,"HLGT_0198",NA,"SKIN AND SUBCUTANEOUS TISSUE DISORDERS",NA,"SKIN AND SUBCUTANEOUS TISSUE DISORDERS",10040785,"Mild Adverse Event","No","Probably Related",NA,"No","No","No","No","No","No","No","05/11/2013","05/04/2013",NA
"CDISCPILOT01","704-1114","AE","Adverse Events","Erythema","Recovered/Resolved","REDNESS",10038198,"ERYTHEMA",NA,"HLT_0284",NA,"HLGT_0192",NA,"SKIN AND SUBCUTANEOUS TISSUE DISORDERS",NA,"SKIN AND SUBCUTANEOUS TISSUE DISORDERS",10040785,"Mild Adverse Event","No","Probably Related",NA,"No","No","No","No","No","No","No","03/13/2013","02/21/2013","02/23/2013"
"CDISCPILOT01","704-1114","AE","Adverse Events","Influenza","Recovered/Resolved","FLU",10016790,"INFLUENZA",NA,"HLT_0125",NA,"HLGT_0081",NA,"INFECTIONS AND INFESTATIONS",NA,"INFECTIONS AND INFESTATIONS",10021881,"Mild Adverse Event","No","Not Related",NA,"No","No","No","No","No","No","No","06/16/2013","06/07/2013","06/13/2013"
"CDISCPILOT01","704-1114","AE","Adverse Events","Oedema","Not Recovered/not Resolved","EDEMA",10014210,"OEDEMA",NA,"HLT_0656",NA,"HLGT_0036",NA,"GENERAL DISORDERS AND ADMINISTRATION SITE CONDITIONS",NA,"GENERAL DISORDERS AND ADMINISTRATION SITE CONDITIONS",10018065,"Mild Adverse Event","No","Probably Related",NA,"No","No","No","No","No","No","No","03/13/2013","02/23/2013",NA
"CDISCPILOT01","704-1114","AE","Adverse Events","Pruritus","Not Recovered/not Resolved","ITCHING",10023084,"PRURITUS",NA,"HLT_0778",NA,"HLGT_0695",NA,"SKIN AND SUBCUTANEOUS TISSUE DISORDERS",NA,"SKIN AND SUBCUTANEOUS TISSUE DISORDERS",10040785,"Mild Adverse Event","No","Probably Related",NA,"No","No","No","No","No","No","No","03/26/2013","03/23/2013",NA
"CDISCPILOT01","704-1114","AE","Adverse Events","Rash","Not Recovered/not Resolved","RASH",10037844,"RASH",NA,"HLT_0762",NA,"HLGT_0198",NA,"SKIN AND SUBCUTANEOUS TISSUE DISORDERS",NA,"SKIN AND SUBCUTANEOUS TISSUE DISORDERS",10040785,"Mild Adverse Event","No","Probably Related",NA,"No","No","No","No","No","No","No","03/26/2013","03/23/2013",NA
"CDISCPILOT01","704-1120","AE","Adverse Events","Nasopharyngitis","Not Recovered/not Resolved","COLD",10009851,"NASOPHARYNGITIS",NA,"HLT_0036",NA,"HLGT_0709",NA,"INFECTIONS AND INFESTATIONS",NA,"INFECTIONS AND INFESTATIONS",10021881,"Mild Adverse Event","No","Not Related",NA,"No","No","No","No","No","No","No","12/29/2013","12/28/2013","02/03/2014"
"CDISCPILOT01","704-1120","AE","Adverse Events","Nasopharyngitis","Recovered/Resolved","COLD",10009851,"NASOPHARYNGITIS",NA,"HLT_0036",NA,"HLGT_0709",NA,"INFECTIONS AND INFESTATIONS",NA,"INFECTIONS AND INFESTATIONS",10021881,"Mild Adverse Event","No","Not Related",NA,"No","No","No","No","No","No","No","03/10/2014","12/28/2013","02/03/2014"
"CDISCPILOT01","704-1120","AE","Adverse Events","Pruritus","Not Recovered/not Resolved","ITCHING",10023084,"PRURITUS",NA,"HLT_0778",NA,"HLGT_0695",NA,"SKIN AND SUBCUTANEOUS TISSUE DISORDERS",NA,"SKIN AND SUBCUTANEOUS TISSUE DISORDERS",10040785,"Mild Adverse Event","No","Probably Related",NA,"No","No","No","No","No","No","No","01/27/2014","01/27/2014",NA
"CDISCPILOT01","704-1120","AE","Adverse Events","Pruritus","Not Recovered/not Resolved","ITCHING",10023084,"PRURITUS",NA,"HLT_0778",NA,"HLGT_0695",NA,"SKIN AND SUBCUTANEOUS TISSUE DISORDERS",NA,"SKIN AND SUBCUTANEOUS TISSUE DISORDERS",10040785,"Moderate Adverse Event","No","Probably Related",NA,"No","No","No","No","No","No","No","02/03/2014","01/27/2014",NA
"CDISCPILOT01","704-1120","AE","Adverse Events","Rash","Not Recovered/not Resolved","RASH",10037844,"RASH",NA,"HLT_0762",NA,"HLGT_0198",NA,"SKIN AND SUBCUTANEOUS TISSUE DISORDERS",NA,"SKIN AND SUBCUTANEOUS TISSUE DISORDERS",10040785,"Mild Adverse Event","No","Probably Related",NA,"No","No","No","No","No","No","No","12/29/2013","12/23/2013",NA
"CDISCPILOT01","704-1120","AE","Adverse Events","Rash","Not Recovered/not Resolved","RASH",10037844,"RASH",NA,"HLT_0762",NA,"HLGT_0198",NA,"SKIN AND SUBCUTANEOUS TISSUE DISORDERS",NA,"SKIN AND SUBCUTANEOUS TISSUE DISORDERS",10040785,"Moderate Adverse Event","No","Probably Related",NA,"No","No","No","No","No","No","No","01/27/2014","12/23/2013",NA
"CDISCPILOT01","704-1135","AE","Adverse Events","Rash","Not Recovered/not Resolved","RASH",10037844,"RASH",NA,"HLT_0762",NA,"HLGT_0198",NA,"SKIN AND SUBCUTANEOUS TISSUE DISORDERS",NA,"SKIN AND SUBCUTANEOUS TISSUE DISORDERS",10040785,"Mild Adverse Event","No",NA,NA,"No","No","No","No","No","No","No","12/11/2013","12/08/2013",NA
"CDISCPILOT01","704-1135","AE","Adverse Events","Rash","Not Recovered/not Resolved","RASH",10037844,"RASH",NA,"HLT_0762",NA,"HLGT_0198",NA,"SKIN AND SUBCUTANEOUS TISSUE DISORDERS",NA,"SKIN AND SUBCUTANEOUS TISSUE DISORDERS",10040785,"Severe Adverse Event","No",NA,NA,"No","No","No","No","No","No","No","02/19/2014","12/08/2013",NA
"CDISCPILOT01","704-1164","AE","Adverse Events","Influenza","Not Recovered/not Resolved","FLU",10016790,"INFLUENZA",NA,"HLT_0125",NA,"HLGT_0081",NA,"INFECTIONS AND INFESTATIONS",NA,"INFECTIONS AND INFESTATIONS",10021881,"Mild Adverse Event","No","Not Related",NA,"No","No","No","No","No","No","No","10/04/2012","09/27/2012","10/07/2012"
"CDISCPILOT01","704-1164","AE","Adverse Events","Influenza","Recovered/Resolved","FLU",10016790,"INFLUENZA",NA,"HLT_0125",NA,"HLGT_0081",NA,"INFECTIONS AND INFESTATIONS",NA,"INFECTIONS AND INFESTATIONS",10021881,"Mild Adverse Event","No","Not Related",NA,"No","No","No","No","No","No","No","10/21/2012","09/27/2012","10/07/2012"
"CDISCPILOT01","704-1164","AE","Adverse Events","Oedema Peripheral","Recovered/Resolved","SWELLING OF FEET",10042693,"OEDEMA PERIPHERAL",NA,"HLT_0661",NA,"HLGT_0137",NA,"GENERAL DISORDERS AND ADMINISTRATION SITE CONDITIONS",NA,"GENERAL DISORDERS AND ADMINISTRATION SITE CONDITIONS",10018065,"Mild Adverse Event","No","Not Related",NA,"No","No","No","No","No","No","No","02/14/2013","02/04/2013","02/13/2013"
"CDISCPILOT01","704-1218","AE","Adverse Events","Blood Glucose Increased","Not Recovered/not Resolved","GLUCOSE INCREASED",10018421,"BLOOD GLUCOSE INCREASED",NA,"HLT_0450",NA,"HLGT_0188",NA,"INVESTIGATIONS",NA,"INVESTIGATIONS",10022891,"Mild Adverse Event","No","Not Related",NA,"No","No","No","No","No","No","No","12/30/2012","12/30/2012",NA
"CDISCPILOT01","704-1241","AE","Adverse Events","Dyspnoea","Not Recovered/not Resolved","RESPIRATION LABORED",10038653,"DYSPNOEA",NA,"HLT_0296",NA,"HLGT_0255",NA,"RESPIRATORY, THORACIC AND MEDIASTINAL DISORDERS",NA,"RESPIRATORY, THORACIC AND MEDIASTINAL DISORDERS",10038738,"Mild Adverse Event","No","Not Related",NA,"No","No","No","No","No","No","No","10/09/2013","09/28/2013",NA
"CDISCPILOT01","704-1241","AE","Adverse Events","Rash","Not Recovered/not Resolved","RASH",10037844,"RASH",NA,"HLT_0762",NA,"HLGT_0198",NA,"SKIN AND SUBCUTANEOUS TISSUE DISORDERS",NA,"SKIN AND SUBCUTANEOUS TISSUE DISORDERS",10040785,"Moderate Adverse Event","No","Not Related",NA,"No","No","No","No","No","No","No","10/09/2013","08/14/2013",NA
"CDISCPILOT01","704-1266","AE","Adverse Events","Atrial Fibrillation","Not Recovered/not Resolved","ATRIAL FIBRILLATION",10003658,"ATRIAL FIBRILLATION",NA,"HLT_0365",NA,"HLGT_0012",NA,"CARDIAC DISORDERS",NA,"CARDIAC DISORDERS",10007541,"Mild Adverse Event","No","Not Related",NA,"No","No","No","No","No","No","No","11/08/2013","11/08/2013","12/06/2013"
"CDISCPILOT01","704-1266","AE","Adverse Events","Atrial Fibrillation","Recovered/Resolved","ATRIAL FIBRILLATION",10003658,"ATRIAL FIBRILLATION",NA,"HLT_0365",NA,"HLGT_0012",NA,"CARDIAC DISORDERS",NA,"CARDIAC DISORDERS",10007541,"Mild Adverse Event","No","Not Related",NA,"No","No","No","No","No","No","No","01/03/2014","11/08/2013","12/06/2013"
"CDISCPILOT01","704-1266","AE","Adverse Events","Atrial Flutter","Not Recovered/not Resolved","ATRIAL FLUTTER",10003662,"ATRIAL FLUTTER",NA,"HLT_0477",NA,"HLGT_0627",NA,"CARDIAC DISORDERS",NA,"CARDIAC DISORDERS",10007541,"Mild Adverse Event","No","Not Related",NA,"No","No","No","No","No","No","No","10/27/2013","10/27/2013","11/08/2013"
"CDISCPILOT01","704-1266","AE","Adverse Events","Atrial Flutter","Recovered/Resolved","ATRIAL FLUTTER",10003662,"ATRIAL FLUTTER",NA,"HLT_0477",NA,"HLGT_0627",NA,"CARDIAC DISORDERS",NA,"CARDIAC DISORDERS",10007541,"Mild Adverse Event","No","Not Related",NA,"No","No","No","No","No","No","No","11/10/2013","10/27/2013","11/08/2013"
"CDISCPILOT01","704-1266","AE","Adverse Events","Blister","Not Recovered/not Resolved","BLISTERING",10005214,"BLISTER",NA,"HLT_0752",NA,"HLGT_0267",NA,"SKIN AND SUBCUTANEOUS TISSUE DISORDERS",NA,"SKIN AND SUBCUTANEOUS TISSUE DISORDERS",10040785,"Mild Adverse Event","No","Probably Related",NA,"No","No","No","No","No","No","No","11/22/2013","11/15/2013","12/14/2013"
"CDISCPILOT01","704-1266","AE","Adverse Events","Blister","Recovered/Resolved","BLISTERING",10005214,"BLISTER",NA,"HLT_0752",NA,"HLGT_0267",NA,"SKIN AND SUBCUTANEOUS TISSUE DISORDERS",NA,"SKIN AND SUBCUTANEOUS TISSUE DISORDERS",10040785,"Mild Adverse Event","No","Probably Related",NA,"No","No","No","No","No","No","No","01/03/2014","11/15/2013","12/14/2013"
"CDISCPILOT01","704-1266","AE","Adverse Events","Erythema","Not Recovered/not Resolved","ERYTHEMA",10015150,"ERYTHEMA",NA,"HLT_0284",NA,"HLGT_0192",NA,"SKIN AND SUBCUTANEOUS TISSUE DISORDERS",NA,"SKIN AND SUBCUTANEOUS TISSUE DISORDERS",10040785,"Mild Adverse Event","No","Probably Related",NA,"No","No","No","No","No","No","No","10/27/2013","10/17/2013","12/23/2013"
"CDISCPILOT01","704-1266","AE","Adverse Events","Erythema","Not Recovered/not Resolved","ERYTHEMA",10015150,"ERYTHEMA",NA,"HLT_0284",NA,"HLGT_0192",NA,"SKIN AND SUBCUTANEOUS TISSUE DISORDERS",NA,"SKIN AND SUBCUTANEOUS TISSUE DISORDERS",10040785,"Moderate Adverse Event","No","Probably Related",NA,"No","No","No","No","No","No","No","12/06/2013","10/17/2013","12/23/2013"
"CDISCPILOT01","704-1266","AE","Adverse Events","Erythema","Recovered/Resolved","ERYTHEMA",10015150,"ERYTHEMA",NA,"HLT_0284",NA,"HLGT_0192",NA,"SKIN AND SUBCUTANEOUS TISSUE DISORDERS",NA,"SKIN AND SUBCUTANEOUS TISSUE DISORDERS",10040785,"Moderate Adverse Event","No","Probably Related",NA,"No","No","No","No","No","No","No","01/03/2014","10/17/2013","12/23/2013"
"CDISCPILOT01","704-1266","AE","Adverse Events","Erythema","Not Recovered/not Resolved","REDNESS",10038198,"ERYTHEMA",NA,"HLT_0284",NA,"HLGT_0192",NA,"SKIN AND SUBCUTANEOUS TISSUE DISORDERS",NA,"SKIN AND SUBCUTANEOUS TISSUE DISORDERS",10040785,"Mild Adverse Event","No","Probably Related",NA,"No","No","No","No","No","No","No","12/06/2013","12/06/2013","12/23/2013"
"CDISCPILOT01","704-1266","AE","Adverse Events","Erythema","Recovered/Resolved","REDNESS",10038198,"ERYTHEMA",NA,"HLT_0284",NA,"HLGT_0192",NA,"SKIN AND SUBCUTANEOUS TISSUE DISORDERS",NA,"SKIN AND SUBCUTANEOUS TISSUE DISORDERS",10040785,"Mild Adverse Event","No","Probably Related",NA,"No","No","No","No","No","No","No","01/03/2014","12/06/2013","12/23/2013"
"CDISCPILOT01","704-1266","AE","Adverse Events","Hyperhidrosis","Not Recovered/not Resolved","PERSPIRATION EXCESSIVE",10034734,"HYPERHIDROSIS",NA,"HLT_0587",NA,"HLGT_0005",NA,"SKIN AND SUBCUTANEOUS TISSUE DISORDERS",NA,"SKIN AND SUBCUTANEOUS TISSUE DISORDERS",10040785,"Mild Adverse Event","No","Possibly Related",NA,"No","No","No","No","No","No","No","11/10/2013","11/09/2013","12/04/2013"
"CDISCPILOT01","704-1266","AE","Adverse Events","Hyperhidrosis","Recovered/Resolved","PERSPIRATION EXCESSIVE",10034734,"HYPERHIDROSIS",NA,"HLT_0587",NA,"HLGT_0005",NA,"SKIN AND SUBCUTANEOUS TISSUE DISORDERS",NA,"SKIN AND SUBCUTANEOUS TISSUE DISORDERS",10040785,"Mild Adverse Event","No","Possibly Related",NA,"No","No","No","No","No","No","No","12/06/2013","11/09/2013","12/04/2013"
"CDISCPILOT01","704-1266","AE","Adverse Events","Pruritus","Not Recovered/not Resolved","ITCHING",10023084,"PRURITUS",NA,"HLT_0778",NA,"HLGT_0695",NA,"SKIN AND SUBCUTANEOUS TISSUE DISORDERS",NA,"SKIN AND SUBCUTANEOUS TISSUE DISORDERS",10040785,"Mild Adverse Event","No","Probably Related",NA,"No","No","No","No","No","No","No","11/22/2013","11/15/2013","12/23/2013"
"CDISCPILOT01","704-1266","AE","Adverse Events","Pruritus","Recovered/Resolved","ITCHING",10023084,"PRURITUS",NA,"HLT_0778",NA,"HLGT_0695",NA,"SKIN AND SUBCUTANEOUS TISSUE DISORDERS",NA,"SKIN AND SUBCUTANEOUS TISSUE DISORDERS",10040785,"Mild Adverse Event","No","Probably Related",NA,"No","No","No","No","No","No","No","01/03/2014","11/15/2013","12/23/2013"
"CDISCPILOT01","704-1266","AE","Adverse Events","Seasonal Allergy","Not Recovered/not Resolved","HAY FEVER",10019170,"SEASONAL ALLERGY",NA,"HLT_0714",NA,"HLGT_0782",NA,"IMMUNE SYSTEM DISORDERS",NA,"IMMUNE SYSTEM DISORDERS",10021428,"Mild Adverse Event","No","Not Related",NA,"No","No","No","No","No","No","No","10/11/2013","10/06/2013",NA
"CDISCPILOT01","704-1323","AE","Adverse Events","Oedema","Not Recovered/not Resolved","EDEMA",10014210,"OEDEMA",NA,"HLT_0656",NA,"HLGT_0036",NA,"GENERAL DISORDERS AND ADMINISTRATION SITE CONDITIONS",NA,"GENERAL DISORDERS AND ADMINISTRATION SITE CONDITIONS",10018065,"Mild Adverse Event","No","Probably Related",NA,"No","No","No","No","No","No","No","08/04/2013","08/04/2013",NA
"CDISCPILOT01","704-1323","AE","Adverse Events","Pruritus","Not Recovered/not Resolved","ITCHING",10023084,"PRURITUS",NA,"HLT_0778",NA,"HLGT_0695",NA,"SKIN AND SUBCUTANEOUS TISSUE DISORDERS",NA,"SKIN AND SUBCUTANEOUS TISSUE DISORDERS",10040785,"Mild Adverse Event","No","Probably Related",NA,"No","No","No","No","No","No","No","08/04/2013","08/04/2013",NA
"CDISCPILOT01","704-1323","AE","Adverse Events","Rash","Not Recovered/not Resolved","RASH",10037844,"RASH",NA,"HLT_0762",NA,"HLGT_0198",NA,"SKIN AND SUBCUTANEOUS TISSUE DISORDERS",NA,"SKIN AND SUBCUTANEOUS TISSUE DISORDERS",10040785,"Mild Adverse Event","No","Probably Related",NA,"No","No","No","No","No","No","No","08/04/2013","08/04/2013",NA
"CDISCPILOT01","704-1323","AE","Adverse Events","Viral Infection","Recovered/Resolved","VIRAL INFECTION",10047461,"VIRAL INFECTION",NA,"HLT_0733",NA,"HLGT_0408",NA,"INFECTIONS AND INFESTATIONS",NA,"INFECTIONS AND INFESTATIONS",10021881,"Mild Adverse Event","No","Not Related",NA,"No","No","No","No","No","No","No","08/04/2013","07/30/2013","08/03/2013"
"CDISCPILOT01","704-1325","AE","Adverse Events","Pruritus","Not Recovered/not Resolved","ITCHING",10023084,"PRURITUS",NA,"HLT_0778",NA,"HLGT_0695",NA,"SKIN AND SUBCUTANEOUS TISSUE DISORDERS",NA,"SKIN AND SUBCUTANEOUS TISSUE DISORDERS",10040785,"Mild Adverse Event","No","Probably Related",NA,"No","No","No","No","No","No","No","07/16/2014","07/04/2014",NA
"CDISCPILOT01","704-1325","AE","Adverse Events","Rash","Not Recovered/not Resolved","RASH",10037844,"RASH",NA,"HLT_0762",NA,"HLGT_0198",NA,"SKIN AND SUBCUTANEOUS TISSUE DISORDERS",NA,"SKIN AND SUBCUTANEOUS TISSUE DISORDERS",10040785,"Mild Adverse Event","No","Probably Related",NA,"No","No","No","No","No","No","No","06/04/2014","05/23/2014",NA
"CDISCPILOT01","704-1332","AE","Adverse Events","Burning Sensation","Not Recovered/not Resolved","BURNING SENSATION",10006784,"BURNING SENSATION",NA,"HLT_0775",NA,"HLGT_0456",NA,"NERVOUS SYSTEM DISORDERS",NA,"NERVOUS SYSTEM DISORDERS",10029205,"Mild Adverse Event","No","Probably Related",NA,"No","No","No","No","No","No","No","02/03/2014","02/03/2014",NA
"CDISCPILOT01","704-1332","AE","Adverse Events","Pruritus","Not Recovered/not Resolved","ITCHING",10023084,"PRURITUS",NA,"HLT_0778",NA,"HLGT_0695",NA,"SKIN AND SUBCUTANEOUS TISSUE DISORDERS",NA,"SKIN AND SUBCUTANEOUS TISSUE DISORDERS",10040785,"Mild Adverse Event","No","Probably Related",NA,"No","No","No","No","No","No","No","01/20/2014","01/18/2014","02/24/2014"
"CDISCPILOT01","704-1332","AE","Adverse Events","Pruritus","Recovered/Resolved","ITCHING",10023084,"PRURITUS",NA,"HLT_0778",NA,"HLGT_0695",NA,"SKIN AND SUBCUTANEOUS TISSUE DISORDERS",NA,"SKIN AND SUBCUTANEOUS TISSUE DISORDERS",10040785,"Mild Adverse Event","No","Probably Related",NA,"No","No","No","No","No","No","No","02/24/2014","01/18/2014","02/24/2014"
"CDISCPILOT01","704-1332","AE","Adverse Events","Rash","Not Recovered/not Resolved","RASH",10037844,"RASH",NA,"HLT_0762",NA,"HLGT_0198",NA,"SKIN AND SUBCUTANEOUS TISSUE DISORDERS",NA,"SKIN AND SUBCUTANEOUS TISSUE DISORDERS",10040785,"Mild Adverse Event","No","Not Related",NA,"No","No","No","No","No","No","No","12/23/2013","12/10/2013","02/24/2014"
"CDISCPILOT01","704-1332","AE","Adverse Events","Rash","Not Recovered/not Resolved","RASH",10037844,"RASH",NA,"HLT_0762",NA,"HLGT_0198",NA,"SKIN AND SUBCUTANEOUS TISSUE DISORDERS",NA,"SKIN AND SUBCUTANEOUS TISSUE DISORDERS",10040785,"Moderate Adverse Event","No","Not Related",NA,"No","No","No","No","No","No","No","02/03/2014","12/10/2013","02/24/2014"
"CDISCPILOT01","704-1332","AE","Adverse Events","Rash","Recovered/Resolved","RASH",10037844,"RASH",NA,"HLT_0762",NA,"HLGT_0198",NA,"SKIN AND SUBCUTANEOUS TISSUE DISORDERS",NA,"SKIN AND SUBCUTANEOUS TISSUE DISORDERS",10040785,"Moderate Adverse Event","No","Not Related",NA,"No","No","No","No","No","No","No","02/24/2014","12/10/2013","02/24/2014"
"CDISCPILOT01","704-1351","AE","Adverse Events","Flatulence","Not Recovered/not Resolved","GAS",10017735,"FLATULENCE",NA,"HLT_0356",NA,"HLGT_0504",NA,"GASTROINTESTINAL DISORDERS",NA,"GASTROINTESTINAL DISORDERS",10017947,"Mild Adverse Event","No","Not Related",NA,"No","No","No","No","No","No","No","11/07/2013","10/27/2013","04/04/2014"
"CDISCPILOT01","704-1351","AE","Adverse Events","Flatulence","Recovered/Resolved","GAS",10017735,"FLATULENCE",NA,"HLT_0356",NA,"HLGT_0504",NA,"GASTROINTESTINAL DISORDERS",NA,"GASTROINTESTINAL DISORDERS",10017947,"Mild Adverse Event","No","Not Related",NA,"No","No","No","No","No","No","No","04/18/2014","10/27/2013","04/04/2014"
"CDISCPILOT01","704-1351","AE","Adverse Events","Pollakiuria","Not Recovered/not Resolved","URINARY FREQUENCY",10046539,"POLLAKIURIA",NA,"HLT_0393",NA,"HLGT_0560",NA,"RENAL AND URINARY DISORDERS",NA,"RENAL AND URINARY DISORDERS",10038359,"Mild Adverse Event","No","Not Related",NA,"No","No","No","No","No","No","No","11/07/2013","10/27/2013","04/04/2014"
"CDISCPILOT01","704-1351","AE","Adverse Events","Pollakiuria","Recovered/Resolved","URINARY FREQUENCY",10046539,"POLLAKIURIA",NA,"HLT_0393",NA,"HLGT_0560",NA,"RENAL AND URINARY DISORDERS",NA,"RENAL AND URINARY DISORDERS",10038359,"Mild Adverse Event","No","Not Related",NA,"No","No","No","No","No","No","No","04/18/2014","10/27/2013","04/04/2014"
"CDISCPILOT01","704-1388","AE","Adverse Events","Headache","Not Recovered/not Resolved","HEADACHE",10019211,"HEADACHE",NA,"HLT_0064",NA,"HLGT_0344",NA,"NERVOUS SYSTEM DISORDERS",NA,"NERVOUS SYSTEM DISORDERS",10029205,"Moderate Adverse Event","No","Not Related",NA,"No","No","No","No","No","No","No","03/27/2013","08/23/2012",NA
"CDISCPILOT01","704-1435","AE","Adverse Events","Parkinson's Disease","Not Recovered/not Resolved","DISEASE PARKINSON'S",10013113,"PARKINSON'S DISEASE",NA,"HLT_0279",NA,"HLGT_0313",NA,"NERVOUS SYSTEM DISORDERS",NA,"NERVOUS SYSTEM DISORDERS",10029205,"Mild Adverse Event","No","Not Related",NA,"No","No","No","No","No","No","No","01/12/2013","01/06/2013",NA
"CDISCPILOT01","704-1445","AE","Adverse Events","Completed Suicide","Fatal","SUICIDE",10042462,"COMPLETED SUICIDE",NA,"HLT_0625",NA,"HLGT_0013",NA,"PSYCHIATRIC DISORDERS",NA,"PSYCHIATRIC DISORDERS",10037175,"Severe Adverse Event","No","Not Related",NA,"No","No","No","Yes","No","No","No","11/01/2014","10/31/2014","10/31/2014"
"CDISCPILOT01","705-1031","AE","Adverse Events","Rash","Not Recovered/not Resolved","RASH",10037844,"RASH",NA,"HLT_0762",NA,"HLGT_0198",NA,"SKIN AND SUBCUTANEOUS TISSUE DISORDERS",NA,"SKIN AND SUBCUTANEOUS TISSUE DISORDERS",10040785,"Mild Adverse Event","No","Possibly Related",NA,"No","No","No","No","No","No","No","12/25/2013","12/25/2013",NA
"CDISCPILOT01","705-1059","AE","Adverse Events","Erythema","Not Recovered/not Resolved","ERYTHEMA",10015150,"ERYTHEMA",NA,"HLT_0284",NA,"HLGT_0192",NA,"SKIN AND SUBCUTANEOUS TISSUE DISORDERS",NA,"SKIN AND SUBCUTANEOUS TISSUE DISORDERS",10040785,"Moderate Adverse Event","No","Probably Related",NA,"No","No","No","No","No","No","No","11/07/2013","11/02/2013",NA
"CDISCPILOT01","705-1186","AE","Adverse Events","Hyperbilirubinaemia","Not Recovered/not Resolved","HYPERBILIRUBINEMIA",10020582,"HYPERBILIRUBINAEMIA",NA,"HLT_0478",NA,"HLGT_0087",NA,"HEPATOBILIARY DISORDERS",NA,"HEPATOBILIARY DISORDERS",10019805,"Moderate Adverse Event","No","Remote",NA,"No","No","No","No","No","No","No","02/07/2014","01/26/2014",NA
"CDISCPILOT01","705-1199","AE","Adverse Events","Dyspepsia","Not Recovered/not Resolved","PYROSIS",10037676,"DYSPEPSIA",NA,"HLT_0244",NA,"HLGT_0716",NA,"GASTROINTESTINAL DISORDERS",NA,"GASTROINTESTINAL DISORDERS",10017947,"Moderate Adverse Event","No","Possibly Related",NA,"No","No","No","No","No","No","No","09/29/2013","09/17/2013","09/29/2013"
"CDISCPILOT01","705-1199","AE","Adverse Events","Dyspepsia","Recovered/Resolved","PYROSIS",10037676,"DYSPEPSIA",NA,"HLT_0244",NA,"HLGT_0716",NA,"GASTROINTESTINAL DISORDERS",NA,"GASTROINTESTINAL DISORDERS",10017947,"Moderate Adverse Event","No","Possibly Related",NA,"No","No","No","No","No","No","No","09/29/2013","09/17/2013","09/29/2013"
"CDISCPILOT01","705-1280","AE","Adverse Events","Pruritus","Not Recovered/not Resolved","PRURITUS",10037087,"PRURITUS",NA,"HLT_0778",NA,"HLGT_0695",NA,"SKIN AND SUBCUTANEOUS TISSUE DISORDERS",NA,"SKIN AND SUBCUTANEOUS TISSUE DISORDERS",10040785,"Mild Adverse Event","No","Possibly Related",NA,"No","No","No","No","No","No","No","05/16/2014","04/20/2014",NA
"CDISCPILOT01","705-1281","AE","Adverse Events","Excoriation","Not Recovered/not Resolved","ABRASIONS",10000266,"EXCORIATION",NA,"HLT_0738",NA,"HLGT_0511",NA,"INJURY, POISONING AND PROCEDURAL COMPLICATIONS",NA,"INJURY, POISONING AND PROCEDURAL COMPLICATIONS",10022117,"Moderate Adverse Event","No","Probably Related",NA,"No","No","No","No","No","No","No","02/18/2014","01/30/2014",NA
"CDISCPILOT01","705-1281","AE","Adverse Events","Pruritus","Not Recovered/not Resolved","PRURITUS",10037087,"PRURITUS",NA,"HLT_0778",NA,"HLGT_0695",NA,"SKIN AND SUBCUTANEOUS TISSUE DISORDERS",NA,"SKIN AND SUBCUTANEOUS TISSUE DISORDERS",10040785,"Mild Adverse Event","No","Possibly Related",NA,"No","No","No","No","No","No","No","02/18/2014","01/30/2014",NA
"CDISCPILOT01","705-1281","AE","Adverse Events","Pruritus","Not Recovered/not Resolved","PRURITUS",10037087,"PRURITUS",NA,"HLT_0778",NA,"HLGT_0695",NA,"SKIN AND SUBCUTANEOUS TISSUE DISORDERS",NA,"SKIN AND SUBCUTANEOUS TISSUE DISORDERS",10040785,"Moderate Adverse Event","No","Possibly Related",NA,"No","No","No","No","No","No","No","03/17/2014","01/30/2014",NA
"CDISCPILOT01","705-1292","AE","Adverse Events","Erythema","Not Recovered/not Resolved","ERYTHEMA",10015150,"ERYTHEMA",NA,"HLT_0284",NA,"HLGT_0192",NA,"SKIN AND SUBCUTANEOUS TISSUE DISORDERS",NA,"SKIN AND SUBCUTANEOUS TISSUE DISORDERS",10040785,"Moderate Adverse Event","No","Probably Related",NA,"No","No","No","No","No","No","No","03/03/2014","02/13/2014",NA
"CDISCPILOT01","705-1292","AE","Adverse Events","Pruritus","Not Recovered/not Resolved","ITCHY",10023089,"PRURITUS",NA,"HLT_0778",NA,"HLGT_0695",NA,"SKIN AND SUBCUTANEOUS TISSUE DISORDERS",NA,"SKIN AND SUBCUTANEOUS TISSUE DISORDERS",10040785,"Mild Adverse Event","No","Probably Related",NA,"No","No","No","No","No","No","No","10/29/2013","10/28/2013",NA
"CDISCPILOT01","705-1303","AE","Adverse Events","Pruritus","Not Recovered/not Resolved","PRURITUS",10037087,"PRURITUS",NA,"HLT_0778",NA,"HLGT_0695",NA,"SKIN AND SUBCUTANEOUS TISSUE DISORDERS",NA,"SKIN AND SUBCUTANEOUS TISSUE DISORDERS",10040785,"Mild Adverse Event","No","Possibly Related",NA,"No","No","No","No","No","No","No","02/10/2014","02/05/2014","03/03/2014"
"CDISCPILOT01","705-1303","AE","Adverse Events","Pruritus","Recovered/Resolved","PRURITUS",10037087,"PRURITUS",NA,"HLT_0778",NA,"HLGT_0695",NA,"SKIN AND SUBCUTANEOUS TISSUE DISORDERS",NA,"SKIN AND SUBCUTANEOUS TISSUE DISORDERS",10040785,"Mild Adverse Event","No","Possibly Related",NA,"No","No","No","No","No","No","No","04/07/2014","02/05/2014","03/03/2014"
"CDISCPILOT01","705-1303","AE","Adverse Events","Rash","Not Recovered/not Resolved","RASH",10037844,"RASH",NA,"HLT_0762",NA,"HLGT_0198",NA,"SKIN AND SUBCUTANEOUS TISSUE DISORDERS",NA,"SKIN AND SUBCUTANEOUS TISSUE DISORDERS",10040785,"Mild Adverse Event","No","Possibly Related",NA,"No","No","No","No","No","No","No","02/10/2014","02/05/2014","03/03/2014"
"CDISCPILOT01","705-1303","AE","Adverse Events","Rash","Recovered/Resolved","RASH",10037844,"RASH",NA,"HLT_0762",NA,"HLGT_0198",NA,"SKIN AND SUBCUTANEOUS TISSUE DISORDERS",NA,"SKIN AND SUBCUTANEOUS TISSUE DISORDERS",10040785,"Moderate Adverse Event","No","Possibly Related",NA,"No","No","No","No","No","No","No","04/07/2014","02/05/2014","03/03/2014"
"CDISCPILOT01","705-1310","AE","Adverse Events","Rash Pruritic","Not Recovered/not Resolved","PRURITIC RASH",10037085,"RASH PRURITIC",NA,"HLT_0127",NA,"HLGT_0753",NA,"SKIN AND SUBCUTANEOUS TISSUE DISORDERS",NA,"SKIN AND SUBCUTANEOUS TISSUE DISORDERS",10040785,"Moderate Adverse Event","No","Possibly Related",NA,"No","No","No","No","No","No","No","11/22/2013","11/14/2013",NA
"CDISCPILOT01","705-1310","AE","Adverse Events","Wound Haemorrhage","Not Recovered/not Resolved","WOUND BLEEDING",10051386,"WOUND HAEMORRHAGE",NA,"HLT_0154",NA,"HLGT_0162",NA,"VASCULAR DISORDERS",NA,"VASCULAR DISORDERS",10047065,"Moderate Adverse Event","No","Possibly Related",NA,"No","No","No","No","No","No","No","01/23/2014","01/09/2014",NA
"CDISCPILOT01","705-1349","AE","Adverse Events","Electrocardiogram St Segment Depression","Not Recovered/not Resolved","ST SEGMENT DEPRESSED",10041891,"ELECTROCARDIOGRAM ST SEGMENT DEPRESSION",NA,"HLT_0610",NA,"HLGT_0220",NA,"INVESTIGATIONS",NA,"INVESTIGATIONS",10022891,"Mild Adverse Event","No","Remote",NA,"No","No","No","No","No","No","No","08/25/2013","08/25/2013",NA
"CDISCPILOT01","705-1349","AE","Adverse Events","Nausea","Recovered/Resolved","NAUSEA",10028813,"NAUSEA",NA,"HLT_0742",NA,"HLGT_0326",NA,"GASTROINTESTINAL DISORDERS",NA,"GASTROINTESTINAL DISORDERS",10017947,"Mild Adverse Event","No","Remote",NA,"No","No","No","No","No","No","No","04/17/2013","04/08/2013","04/08/2013"
"CDISCPILOT01","705-1349","AE","Adverse Events","Ventricular Hypertrophy","Not Recovered/not Resolved","LEFT VENTRICULAR HYPERTROPHY",10049773,"VENTRICULAR HYPERTROPHY",NA,"HLT_0104",NA,"HLGT_0259",NA,"CARDIAC DISORDERS",NA,"CARDIAC DISORDERS",10007541,"Mild Adverse Event","No","Remote",NA,"No","No","No","No","No","No","No","08/25/2013","08/25/2013",NA
"CDISCPILOT01","705-1349","AE","Adverse Events","Vomiting","Recovered/Resolved","VOMITING",10047700,"VOMITING",NA,"HLT_0016",NA,"HLGT_0350",NA,"GASTROINTESTINAL DISORDERS",NA,"GASTROINTESTINAL DISORDERS",10017947,"Mild Adverse Event","No","Remote",NA,"No","No","No","No","No","No","No","04/17/2013","04/11/2013","04/11/2013"
"CDISCPILOT01","705-1393","AE","Adverse Events","Abdominal Pain","Recovered/Resolved","ABDOMINAL CRAMPS",10000057,"ABDOMINAL PAIN",NA,"HLT_0217",NA,"HLGT_0419",NA,"GASTROINTESTINAL DISORDERS",NA,"GASTROINTESTINAL DISORDERS",10017947,"Mild Adverse Event","No","Remote",NA,"No","No","No","No","No","No","No","09/27/2012","09/19/2012","09/24/2012"
"CDISCPILOT01","705-1393","AE","Adverse Events","Colon Cancer","Recovered/Resolved","COLON CANCER",10009944,"COLON CANCER",NA,"HLT_0597",NA,"HLGT_0339",NA,"NEOPLASMS BENIGN, MALIGNANT AND UNSPECIFIED (INCL CYSTS AND POLYPS)",NA,"NEOPLASMS BENIGN, MALIGNANT AND UNSPECIFIED (INCL CYSTS AND POLYPS)",10029104,"Severe Adverse Event","No","Not Related",NA,"Yes","No","No","No","Yes","No","No","02/20/2013","01/21/2013","01/24/2013"
"CDISCPILOT01","705-1393","AE","Adverse Events","Pruritus","Not Recovered/not Resolved","PRURITUS",10037087,"PRURITUS",NA,"HLT_0778",NA,"HLGT_0695",NA,"SKIN AND SUBCUTANEOUS TISSUE DISORDERS",NA,"SKIN AND SUBCUTANEOUS TISSUE DISORDERS",10040785,"Mild Adverse Event","No","Probably Related",NA,"No","No","No","No","No","No","No","12/05/2012","12/05/2011","02/20/2013"
"CDISCPILOT01","705-1393","AE","Adverse Events","Pruritus","Recovered/Resolved","PRURITUS",10037087,"PRURITUS",NA,"HLT_0778",NA,"HLGT_0695",NA,"SKIN AND SUBCUTANEOUS TISSUE DISORDERS",NA,"SKIN AND SUBCUTANEOUS TISSUE DISORDERS",10040785,"Mild Adverse Event","No","Probably Related",NA,"No","No","No","No","No","No","No","04/25/2013","12/05/2011","02/20/2013"
"CDISCPILOT01","705-1431","AE","Adverse Events","Anxiety","Recovered/Resolved","FEELING ANXIOUS",10016323,"ANXIETY",NA,"HLT_0559",NA,"HLGT_0570",NA,"PSYCHIATRIC DISORDERS",NA,"PSYCHIATRIC DISORDERS",10037175,"Mild Adverse Event","No","Possibly Related",NA,"No","No","No","No","No","No","No","07/07/2013","07/04/2013","07/06/2013"
"CDISCPILOT01","705-1431","AE","Adverse Events","Rash Erythematous","Not Recovered/not Resolved","ERYTHEMATOUS RASH",10015243,"RASH ERYTHEMATOUS",NA,"HLT_0336",NA,"HLGT_0701",NA,"SKIN AND SUBCUTANEOUS TISSUE DISORDERS",NA,"SKIN AND SUBCUTANEOUS TISSUE DISORDERS",10040785,"Mild Adverse Event","No","Probably Related",NA,"No","No","No","No","No","No","No","06/23/2013","06/22/2013",NA
"CDISCPILOT01","706-1041","AE","Adverse Events","Anxiety","Not Recovered/not Resolved","ANXIETY ATTACK",10002856,"ANXIETY",NA,"HLT_0559",NA,"HLGT_0570",NA,"PSYCHIATRIC DISORDERS",NA,"PSYCHIATRIC DISORDERS",10037175,"Moderate Adverse Event","No","Remote",NA,"No","No","No","No","No","No","No","01/14/2014",NA,NA
"CDISCPILOT01","706-1041","AE","Adverse Events","Anxiety","Not Recovered/not Resolved","ANXIETY ATTACK",10002856,"ANXIETY",NA,"HLT_0559",NA,"HLGT_0570",NA,"PSYCHIATRIC DISORDERS",NA,"PSYCHIATRIC DISORDERS",10037175,"Mild Adverse Event","No","Remote",NA,"No","No","No","No","No","No","No","05/06/2014",NA,NA
"CDISCPILOT01","706-1041","AE","Adverse Events","Diarrhoea","Recovered/Resolved","DIARRHEA",10012727,"DIARRHOEA",NA,"HLT_0148",NA,"HLGT_0588",NA,"GASTROINTESTINAL DISORDERS",NA,"GASTROINTESTINAL DISORDERS",10017947,"Mild Adverse Event","No","Remote",NA,"No","No","No","No","No","No","No","01/14/2014","01/07/2014","01/08/2014"
"CDISCPILOT01","706-1041","AE","Adverse Events","Excoriation","Not Recovered/not Resolved","ABRASIONS",10000266,"EXCORIATION",NA,"HLT_0738",NA,"HLGT_0511",NA,"INJURY, POISONING AND PROCEDURAL COMPLICATIONS",NA,"INJURY, POISONING AND PROCEDURAL COMPLICATIONS",10022117,"Mild Adverse Event","No","Not Related",NA,"No","No","No","No","No","No","No","01/14/2014","01/14/2014","01/28/2014"
"CDISCPILOT01","706-1041","AE","Adverse Events","Excoriation","Recovered/Resolved","ABRASIONS",10000266,"EXCORIATION",NA,"HLT_0738",NA,"HLGT_0511",NA,"INJURY, POISONING AND PROCEDURAL COMPLICATIONS",NA,"INJURY, POISONING AND PROCEDURAL COMPLICATIONS",10022117,"Mild Adverse Event","No","Not Related",NA,"No","No","No","No","No","No","No","01/30/2014","01/14/2014","01/28/2014"
"CDISCPILOT01","706-1041","AE","Adverse Events","Irritability","Not Recovered/not Resolved","IRRITABILITY",10022998,"IRRITABILITY",NA,"HLT_0627",NA,"HLGT_0461",NA,"PSYCHIATRIC DISORDERS",NA,"PSYCHIATRIC DISORDERS",10037175,"Moderate Adverse Event","No","Possibly Related",NA,"No","No","No","No","No","No","No","01/28/2014","01/15/2014","07/29/2014"
"CDISCPILOT01","706-1041","AE","Adverse Events","Irritability","Recovered/Resolved","IRRITABILITY",10022998,"IRRITABILITY",NA,"HLT_0627",NA,"HLGT_0461",NA,"PSYCHIATRIC DISORDERS",NA,"PSYCHIATRIC DISORDERS",10037175,"Moderate Adverse Event","No","Possibly Related",NA,"No","No","No","No","No","No","No","07/29/2014","01/15/2014","07/29/2014"
"CDISCPILOT01","706-1041","AE","Adverse Events","Pruritus","Not Recovered/not Resolved","ITCHING",10023084,"PRURITUS",NA,"HLT_0778",NA,"HLGT_0695",NA,"SKIN AND SUBCUTANEOUS TISSUE DISORDERS",NA,"SKIN AND SUBCUTANEOUS TISSUE DISORDERS",10040785,"Mild Adverse Event","No","Possibly Related",NA,"No","No","No","No","No","No","No","03/04/2014","03/04/2014","07/29/2014"
"CDISCPILOT01","706-1041","AE","Adverse Events","Pruritus","Recovered/Resolved","ITCHING",10023084,"PRURITUS",NA,"HLT_0778",NA,"HLGT_0695",NA,"SKIN AND SUBCUTANEOUS TISSUE DISORDERS",NA,"SKIN AND SUBCUTANEOUS TISSUE DISORDERS",10040785,"Mild Adverse Event","No","Possibly Related",NA,"No","No","No","No","No","No","No","07/29/2014","03/04/2014","07/29/2014"
"CDISCPILOT01","706-1049","AE","Adverse Events","Syncope","Recovered/Resolved","FAINTING",10016169,"SYNCOPE",NA,"HLT_0440",NA,"HLGT_0310",NA,"NERVOUS SYSTEM DISORDERS",NA,"NERVOUS SYSTEM DISORDERS",10029205,"Moderate Adverse Event","No","Possibly Related",NA,"No","No","No","No","No","No","No","06/11/2013","06/03/2013","06/03/2013"
"CDISCPILOT01","706-1049","AE","Adverse Events","Syncope","Recovered/Resolved","SYNCOPAL ATTACK",10042771,"SYNCOPE",NA,"HLT_0440",NA,"HLGT_0310",NA,"NERVOUS SYSTEM DISORDERS",NA,"NERVOUS SYSTEM DISORDERS",10029205,"Severe Adverse Event","No","Probably Related",NA,"No","No","No","No","Yes","No","No","06/25/2013","06/18/2013","06/18/2013"
"CDISCPILOT01","706-1384","AE","Adverse Events","Erythema","Not Recovered/not Resolved","ERYTHEMA",10015150,"ERYTHEMA",NA,"HLT_0284",NA,"HLGT_0192",NA,"SKIN AND SUBCUTANEOUS TISSUE DISORDERS",NA,"SKIN AND SUBCUTANEOUS TISSUE DISORDERS",10040785,"Moderate Adverse Event","No","Not Related",NA,"No","No","No","No","No","No","No","09/15/2012","09/15/2012","09/29/2012"
"CDISCPILOT01","706-1384","AE","Adverse Events","Erythema","Recovered/Resolved","ERYTHEMA",10015150,"ERYTHEMA",NA,"HLT_0284",NA,"HLGT_0192",NA,"SKIN AND SUBCUTANEOUS TISSUE DISORDERS",NA,"SKIN AND SUBCUTANEOUS TISSUE DISORDERS",10040785,"Moderate Adverse Event","No","Not Related",NA,"No","No","No","No","No","No","No","06/22/2013","09/15/2012","09/29/2012"
"CDISCPILOT01","706-1384","AE","Adverse Events","Erythema","Not Recovered/not Resolved","ERYTHEMA",10015150,"ERYTHEMA",NA,"HLT_0284",NA,"HLGT_0192",NA,"SKIN AND SUBCUTANEOUS TISSUE DISORDERS",NA,"SKIN AND SUBCUTANEOUS TISSUE DISORDERS",10040785,"Moderate Adverse Event","No","Probably Related",NA,"No","No","No","No","No","No","No","09/29/2012","09/23/2012","09/29/2012"
"CDISCPILOT01","706-1384","AE","Adverse Events","Erythema","Recovered/Resolved","ERYTHEMA",10015150,"ERYTHEMA",NA,"HLT_0284",NA,"HLGT_0192",NA,"SKIN AND SUBCUTANEOUS TISSUE DISORDERS",NA,"SKIN AND SUBCUTANEOUS TISSUE DISORDERS",10040785,"Moderate Adverse Event","No","Probably Related",NA,"No","No","No","No","No","No","No","06/22/2013","09/23/2012","09/29/2012"
"CDISCPILOT01","706-1384","AE","Adverse Events","Excoriation","Not Recovered/not Resolved","ABRASIONS",10000266,"EXCORIATION",NA,"HLT_0738",NA,"HLGT_0511",NA,"INJURY, POISONING AND PROCEDURAL COMPLICATIONS",NA,"INJURY, POISONING AND PROCEDURAL COMPLICATIONS",10022117,"Moderate Adverse Event","No","Not Related",NA,"No","No","No","No","No","No","No","09/15/2012","09/15/2012","09/29/2012"
"CDISCPILOT01","706-1384","AE","Adverse Events","Excoriation","Recovered/Resolved","ABRASIONS",10000266,"EXCORIATION",NA,"HLT_0738",NA,"HLGT_0511",NA,"INJURY, POISONING AND PROCEDURAL COMPLICATIONS",NA,"INJURY, POISONING AND PROCEDURAL COMPLICATIONS",10022117,"Moderate Adverse Event","No","Not Related",NA,"No","No","No","No","No","No","No","06/22/2013","09/15/2012","09/29/2012"
"CDISCPILOT01","706-1384","AE","Adverse Events","Pruritus","Not Recovered/not Resolved","PRURITIS",10037086,"PRURITUS",NA,"HLT_0778",NA,"HLGT_0695",NA,"SKIN AND SUBCUTANEOUS TISSUE DISORDERS",NA,"SKIN AND SUBCUTANEOUS TISSUE DISORDERS",10040785,"Moderate Adverse Event","No","Not Related",NA,"No","No","No","No","No","No","No","09/15/2012","09/15/2012","09/29/2012"
"CDISCPILOT01","706-1384","AE","Adverse Events","Pruritus","Recovered/Resolved","PRURITIS",10037086,"PRURITUS",NA,"HLT_0778",NA,"HLGT_0695",NA,"SKIN AND SUBCUTANEOUS TISSUE DISORDERS",NA,"SKIN AND SUBCUTANEOUS TISSUE DISORDERS",10040785,"Moderate Adverse Event","No","Not Related",NA,"No","No","No","No","No","No","No","06/22/2013","09/15/2012","09/29/2012"
"CDISCPILOT01","706-1384","AE","Adverse Events","Pruritus","Not Recovered/not Resolved","PRURITIS",10037086,"PRURITUS",NA,"HLT_0778",NA,"HLGT_0695",NA,"SKIN AND SUBCUTANEOUS TISSUE DISORDERS",NA,"SKIN AND SUBCUTANEOUS TISSUE DISORDERS",10040785,"Moderate Adverse Event","No","Probably Related",NA,"No","No","No","No","No","No","No","09/29/2012","09/23/2012","09/29/2012"
"CDISCPILOT01","706-1384","AE","Adverse Events","Pruritus","Recovered/Resolved","PRURITIS",10037086,"PRURITUS",NA,"HLT_0778",NA,"HLGT_0695",NA,"SKIN AND SUBCUTANEOUS TISSUE DISORDERS",NA,"SKIN AND SUBCUTANEOUS TISSUE DISORDERS",10040785,"Moderate Adverse Event","No","Probably Related",NA,"No","No","No","No","No","No","No","06/22/2013","09/23/2012","09/29/2012"
"CDISCPILOT01","707-1206","AE","Adverse Events","Blood Creatine Phosphokinase Increased","Not Recovered/not Resolved","CPK INCREASE",10011267,"BLOOD CREATINE PHOSPHOKINASE INCREASED",NA,"HLT_0404",NA,"HLGT_0008",NA,"INVESTIGATIONS",NA,"INVESTIGATIONS",10022891,"Moderate Adverse Event","No","Possibly Related",NA,"No","No","No","No","No","No","No","11/27/2013","11/26/2013","12/09/2013"
"CDISCPILOT01","707-1206","AE","Adverse Events","Blood Creatine Phosphokinase Increased","Recovered/Resolved","CPK INCREASE",10011267,"BLOOD CREATINE PHOSPHOKINASE INCREASED",NA,"HLT_0404",NA,"HLGT_0008",NA,"INVESTIGATIONS",NA,"INVESTIGATIONS",10022891,"Moderate Adverse Event","No","Possibly Related",NA,"No","No","No","No","No","No","No","12/23/2013","11/26/2013","12/09/2013"
"CDISCPILOT01","707-1206","AE","Adverse Events","Conjunctivitis","Not Recovered/not Resolved","CONJUNCTIVITIS",10010741,"CONJUNCTIVITIS",NA,"HLT_0584",NA,"HLGT_0335",NA,"EYE DISORDERS",NA,"EYE DISORDERS",10015919,"Moderate Adverse Event","No","Remote",NA,"No","No","No","No","No","No","No","02/16/2014","02/08/2014","02/22/2014"
"CDISCPILOT01","707-1206","AE","Adverse Events","Conjunctivitis","Recovered/Resolved","CONJUNCTIVITIS",10010741,"CONJUNCTIVITIS",NA,"HLT_0584",NA,"HLGT_0335",NA,"EYE DISORDERS",NA,"EYE DISORDERS",10015919,"Moderate Adverse Event","No","Remote",NA,"No","No","No","No","No","No","No","03/16/2014","02/08/2014","02/22/2014"
"CDISCPILOT01","707-1206","AE","Adverse Events","Postnasal Drip","Not Recovered/not Resolved","POSTNASAL DRIP",10036402,"POSTNASAL DRIP",NA,"HLT_0172",NA,"HLGT_0032",NA,"RESPIRATORY, THORACIC AND MEDIASTINAL DISORDERS",NA,"RESPIRATORY, THORACIC AND MEDIASTINAL DISORDERS",10038738,"Mild Adverse Event","No","Not Related",NA,"No","No","No","No","No","No","No","12/09/2013","12/03/2013","12/10/2013"
"CDISCPILOT01","707-1206","AE","Adverse Events","Postnasal Drip","Recovered/Resolved","POSTNASAL DRIP",10036402,"POSTNASAL DRIP",NA,"HLT_0172",NA,"HLGT_0032",NA,"RESPIRATORY, THORACIC AND MEDIASTINAL DISORDERS",NA,"RESPIRATORY, THORACIC AND MEDIASTINAL DISORDERS",10038738,"Mild Adverse Event","No","Not Related",NA,"No","No","No","No","No","No","No","12/23/2013","12/03/2013","12/10/2013"
"CDISCPILOT01","707-1206","AE","Adverse Events","Sinus Arrhythmia","Not Recovered/not Resolved","SINUS ARRHYTHMIA",10040739,"SINUS ARRHYTHMIA",NA,"HLT_0094",NA,"HLGT_0630",NA,"CARDIAC DISORDERS",NA,"CARDIAC DISORDERS",10007541,"Mild Adverse Event","No","Possibly Related",NA,"No","No","No","No","No","No","No","11/25/2013","11/25/2013","12/23/2013"
"CDISCPILOT01","707-1206","AE","Adverse Events","Sinus Arrhythmia","Recovered/Resolved","SINUS ARRHYTHMIA",10040739,"SINUS ARRHYTHMIA",NA,"HLT_0094",NA,"HLGT_0630",NA,"CARDIAC DISORDERS",NA,"CARDIAC DISORDERS",10007541,"Mild Adverse Event","No","Possibly Related",NA,"No","No","No","No","No","No","No","01/19/2014","11/25/2013","12/23/2013"
"CDISCPILOT01","708-1019","AE","Adverse Events","Dizziness","Recovered/Resolved","DIZZINESS",10013573,"DIZZINESS",NA,"HLT_0619",NA,"HLGT_0751",NA,"NERVOUS SYSTEM DISORDERS",NA,"NERVOUS SYSTEM DISORDERS",10029205,"Mild Adverse Event","No","Possibly Related",NA,"No","No","No","No","No","No","No","01/23/2014","01/01/2014","01/01/2014"
"CDISCPILOT01","708-1019","AE","Adverse Events","Headache","Recovered/Resolved","FRONTAL HEADACHE",10048967,"HEADACHE",NA,"HLT_0064",NA,"HLGT_0344",NA,"NERVOUS SYSTEM DISORDERS",NA,"NERVOUS SYSTEM DISORDERS",10029205,"Severe Adverse Event","No","Possibly Related",NA,"No","No","No","No","No","No","No","01/23/2014","12/31/2013","12/31/2013"
"CDISCPILOT01","708-1019","AE","Adverse Events","Stupor","Recovered/Resolved","STUPOR",10042264,"STUPOR",NA,"HLT_0595",NA,"HLGT_0513",NA,"NERVOUS SYSTEM DISORDERS",NA,"NERVOUS SYSTEM DISORDERS",10029205,"Severe Adverse Event","No","Possibly Related",NA,"No","No","No","No","No","No","No","01/23/2014","01/01/2014","01/01/2014"
"CDISCPILOT01","708-1019","AE","Adverse Events","Transient Ischaemic Attack","Recovered/Resolved","TRANSIENT ISCHEMIC ATTACKS",10044391,"TRANSIENT ISCHAEMIC ATTACK",NA,"HLT_0041",NA,"HLGT_0433",NA,"NERVOUS SYSTEM DISORDERS",NA,"NERVOUS SYSTEM DISORDERS",10029205,"Severe Adverse Event","No","Possibly Related",NA,"No","No","No","No","No","No","No","01/23/2014","01/01/2014","01/01/2014"
"CDISCPILOT01","708-1019","AE","Adverse Events","Vision Blurred","Recovered/Resolved","BLURRED VISION",10005886,"VISION BLURRED",NA,"HLT_0120",NA,"HLGT_0598",NA,"EYE DISORDERS",NA,"EYE DISORDERS",10015919,"Mild Adverse Event","No","Possibly Related",NA,"No","No","No","No","No","No","No","01/23/2014","01/01/2014","01/01/2014"
"CDISCPILOT01","708-1032","AE","Adverse Events","Application Site Vesicles","Recovered/Resolved","APPLICATION SITE BLISTER",10053414,"APPLICATION SITE VESICLES",NA,"HLT_0180",NA,"HLGT_0576",NA,"GENERAL DISORDERS AND ADMINISTRATION SITE CONDITIONS",NA,"GENERAL DISORDERS AND ADMINISTRATION SITE CONDITIONS",10018065,"Moderate Adverse Event","No","Probably Related",NA,"No","No","No","No","No","No","No","03/09/2013","02/26/2013","03/09/2013"
"CDISCPILOT01","708-1084","AE","Adverse Events","Dizziness","Not Recovered/not Resolved","DIZZINESS",10013573,"DIZZINESS",NA,"HLT_0619",NA,"HLGT_0751",NA,"NERVOUS SYSTEM DISORDERS",NA,"NERVOUS SYSTEM DISORDERS",10029205,"Mild Adverse Event","No","Possibly Related",NA,"No","No","No","No","No","No","No","05/23/2013","05/23/2013","05/23/2013"
"CDISCPILOT01","708-1084","AE","Adverse Events","Dizziness","Recovered/Resolved","DIZZINESS",10013573,"DIZZINESS",NA,"HLT_0619",NA,"HLGT_0751",NA,"NERVOUS SYSTEM DISORDERS",NA,"NERVOUS SYSTEM DISORDERS",10029205,"Mild Adverse Event","No","Possibly Related",NA,"No","No","No","No","No","No","No","06/09/2013","05/23/2013","05/23/2013"
"CDISCPILOT01","708-1084","AE","Adverse Events","Myocardial Infarction","Not Recovered/not Resolved","MYOCARDIAL INFARCTION",10028596,"MYOCARDIAL INFARCTION",NA,"HLT_0649",NA,"HLGT_0688",NA,"CARDIAC DISORDERS",NA,"CARDIAC DISORDERS",10007541,"Mild Adverse Event","No","Remote",NA,"No","No","No","No","No","No","No","06/09/2013","06/09/2013","06/09/2013"
"CDISCPILOT01","708-1084","AE","Adverse Events","Myocardial Infarction","Recovered/Resolved","MYOCARDIAL INFARCTION",10028596,"MYOCARDIAL INFARCTION",NA,"HLT_0649",NA,"HLGT_0688",NA,"CARDIAC DISORDERS",NA,"CARDIAC DISORDERS",10007541,"Mild Adverse Event","No","Remote",NA,"No","No","No","No","No","No","No","06/11/2013","06/09/2013","06/09/2013"
"CDISCPILOT01","708-1084","AE","Adverse Events","Sinus Bradycardia","Not Recovered/not Resolved","SINUS BRADYCARDIA",10040741,"SINUS BRADYCARDIA",NA,"HLT_0644",NA,"HLGT_0500",NA,"CARDIAC DISORDERS",NA,"CARDIAC DISORDERS",10007541,"Mild Adverse Event","No","Remote",NA,"No","No","No","No","No","No","No","06/23/2013","06/23/2013","06/23/2013"
"CDISCPILOT01","708-1084","AE","Adverse Events","Sinus Bradycardia","Recovered/Resolved","SINUS BRADYCARDIA",10040741,"SINUS BRADYCARDIA",NA,"HLT_0644",NA,"HLGT_0500",NA,"CARDIAC DISORDERS",NA,"CARDIAC DISORDERS",10007541,"Mild Adverse Event","No","Remote",NA,"No","No","No","No","No","No","No","07/07/2013","06/23/2013","06/23/2013"
"CDISCPILOT01","708-1087","AE","Adverse Events","Dizziness","Recovered/Resolved","DIZZINESS",10013573,"DIZZINESS",NA,"HLT_0619",NA,"HLGT_0751",NA,"NERVOUS SYSTEM DISORDERS",NA,"NERVOUS SYSTEM DISORDERS",10029205,"Mild Adverse Event","No","Possibly Related",NA,"No","No","No","No","No","No","No","02/16/2013","02/04/2013","02/08/2013"
"CDISCPILOT01","708-1087","AE","Adverse Events","Headache","Not Recovered/not Resolved","HEADACHE",10019211,"HEADACHE",NA,"HLT_0064",NA,"HLGT_0344",NA,"NERVOUS SYSTEM DISORDERS",NA,"NERVOUS SYSTEM DISORDERS",10029205,"Mild Adverse Event","No","Not Related",NA,"No","No","No","No","No","No","No","02/16/2013","02/16/2013",NA
"CDISCPILOT01","708-1087","AE","Adverse Events","Heart Rate Irregular","Not Recovered/not Resolved","HEARTBEATS IRREGULAR",10019323,"HEART RATE IRREGULAR",NA,"HLT_0765",NA,"HLGT_0140",NA,"INVESTIGATIONS",NA,"INVESTIGATIONS",10022891,"Mild Adverse Event","No","Possibly Related",NA,"No","No","No","No","No","No","No","01/19/2013","01/19/2013","01/19/2013"
"CDISCPILOT01","708-1087","AE","Adverse Events","Heart Rate Irregular","Recovered/Resolved","HEARTBEATS IRREGULAR",10019323,"HEART RATE IRREGULAR",NA,"HLT_0765",NA,"HLGT_0140",NA,"INVESTIGATIONS",NA,"INVESTIGATIONS",10022891,"Mild Adverse Event","No","Possibly Related",NA,"No","No","No","No","No","No","No","02/16/2013","01/19/2013","01/19/2013"
"CDISCPILOT01","708-1087","AE","Adverse Events","Heart Rate Irregular","Not Recovered/not Resolved","HEARTBEATS IRREGULAR",10019323,"HEART RATE IRREGULAR",NA,"HLT_0765",NA,"HLGT_0140",NA,"INVESTIGATIONS",NA,"INVESTIGATIONS",10022891,"Mild Adverse Event","No","Possibly Related",NA,"No","No","No","No","No","No","No","03/16/2013","03/16/2013","03/16/2013"
"CDISCPILOT01","708-1087","AE","Adverse Events","Heart Rate Irregular","Recovered/Resolved","HEARTBEATS IRREGULAR",10019323,"HEART RATE IRREGULAR",NA,"HLT_0765",NA,"HLGT_0140",NA,"INVESTIGATIONS",NA,"INVESTIGATIONS",10022891,"Mild Adverse Event","No","Possibly Related",NA,"No","No","No","No","No","No","No","04/10/2013","03/16/2013","03/16/2013"
"CDISCPILOT01","708-1158","AE","Adverse Events","Agitation","Not Recovered/not Resolved","AGITATION",10001497,"AGITATION",NA,"HLT_0140",NA,"HLGT_0170",NA,"PSYCHIATRIC DISORDERS",NA,"PSYCHIATRIC DISORDERS",10037175,"Mild Adverse Event","No","Remote",NA,"No","No","No","No","No","No","No","02/26/2014","02/25/2014",NA
"CDISCPILOT01","708-1158","AE","Adverse Events","Erythema","Recovered/Resolved","ERYTHEMA",10015150,"ERYTHEMA",NA,"HLT_0284",NA,"HLGT_0192",NA,"SKIN AND SUBCUTANEOUS TISSUE DISORDERS",NA,"SKIN AND SUBCUTANEOUS TISSUE DISORDERS",10040785,"Mild Adverse Event","No","Probably Related",NA,"No","No","No","No","No","No","No","03/22/2014","03/22/2014","03/22/2014"
"CDISCPILOT01","708-1178","AE","Adverse Events","Alcohol Use","Recovered/Resolved","ALCOHOL USE",10048921,"ALCOHOL USE",NA,"HLT_0138",NA,"HLGT_0182",NA,"SOCIAL CIRCUMSTANCES",NA,"SOCIAL CIRCUMSTANCES",10041244,"Mild Adverse Event","No","Not Related",NA,"No","No","No","No","No","No","No","04/06/2014","03/24/2014","03/24/2014"
"CDISCPILOT01","708-1178","AE","Adverse Events","Application Site Pruritus","Not Recovered/not Resolved","APPLICATION SITE ITCHING",10003047,"APPLICATION SITE PRURITUS",NA,"HLT_0317",NA,"HLGT_0338",NA,"GENERAL DISORDERS AND ADMINISTRATION SITE CONDITIONS",NA,"GENERAL DISORDERS AND ADMINISTRATION SITE CONDITIONS",10018065,"Mild Adverse Event","No","Probably Related",NA,"No","No","No","No","No","No","No","03/09/2014","03/09/2014","04/06/2014"
"CDISCPILOT01","708-1178","AE","Adverse Events","Application Site Pruritus","Recovered/Resolved","APPLICATION SITE ITCHING",10003047,"APPLICATION SITE PRURITUS",NA,"HLT_0317",NA,"HLGT_0338",NA,"GENERAL DISORDERS AND ADMINISTRATION SITE CONDITIONS",NA,"GENERAL DISORDERS AND ADMINISTRATION SITE CONDITIONS",10018065,"Mild Adverse Event","No","Probably Related",NA,"No","No","No","No","No","No","No","04/06/2014","03/09/2014","04/06/2014"
"CDISCPILOT01","708-1178","AE","Adverse Events","Atrial Fibrillation","Recovered/Resolved","ATRIAL FIBRILLATION",10003658,"ATRIAL FIBRILLATION",NA,"HLT_0365",NA,"HLGT_0012",NA,"CARDIAC DISORDERS",NA,"CARDIAC DISORDERS",10007541,"Severe Adverse Event","No","Possibly Related",NA,"No","No","No","No","Yes","No","No","04/06/2014","03/24/2014","03/26/2014"
"CDISCPILOT01","708-1178","AE","Adverse Events","Cystitis","Recovered/Resolved","BLADDER INFECTION",10005047,"CYSTITIS",NA,"HLT_0739",NA,"HLGT_0129",NA,"INFECTIONS AND INFESTATIONS",NA,"INFECTIONS AND INFESTATIONS",10021881,"Mild Adverse Event","No","Remote",NA,"No","No","No","No","No","No","No","04/06/2014","03/24/2014","03/28/2014"
"CDISCPILOT01","708-1178","AE","Adverse Events","Dizziness","Recovered/Resolved","LIGHT-HEADED",10024490,"DIZZINESS",NA,"HLT_0619",NA,"HLGT_0751",NA,"NERVOUS SYSTEM DISORDERS",NA,"NERVOUS SYSTEM DISORDERS",10029205,"Severe Adverse Event","No","Possibly Related",NA,"No","No","No","No","Yes","No","No","04/06/2014","03/24/2014","03/26/2014"
"CDISCPILOT01","708-1178","AE","Adverse Events","Flank Pain","Not Recovered/not Resolved","FLANK PAIN",10016750,"FLANK PAIN",NA,"HLT_0484",NA,"HLGT_0543",NA,"MUSCULOSKELETAL AND CONNECTIVE TISSUE DISORDERS",NA,"MUSCULOSKELETAL AND CONNECTIVE TISSUE DISORDERS",10028395,"Mild Adverse Event","No","Not Related",NA,"No","No","No","No","No","No","No","12/19/2013","12/19/2013",NA
"CDISCPILOT01","708-1178","AE","Adverse Events","Nasopharyngitis","Recovered/Resolved","COLD",10009851,"NASOPHARYNGITIS",NA,"HLT_0036",NA,"HLGT_0709",NA,"INFECTIONS AND INFESTATIONS",NA,"INFECTIONS AND INFESTATIONS",10021881,"Mild Adverse Event","No","Not Related",NA,"No","No","No","No","No","No","No","03/09/2014","03/01/2014","03/08/2014"
"CDISCPILOT01","708-1178","AE","Adverse Events","Ventricular Septal Defect","Not Recovered/not Resolved","VENTRICULAR SEPTAL DEFECT",10047298,"VENTRICULAR SEPTAL DEFECT",NA,"HLT_0589",NA,"HLGT_0747",NA,"CONGENITAL, FAMILIAL AND GENETIC DISORDERS",NA,"CONGENITAL, FAMILIAL AND GENETIC DISORDERS",10010331,"Mild Adverse Event","No","Not Related",NA,"No","No","No","No","No","No","No","03/09/2014","03/09/2014",NA
"CDISCPILOT01","708-1213","AE","Adverse Events","Atrial Fibrillation","Not Recovered/not Resolved","ATRIAL FIBRILLATION",10003658,"ATRIAL FIBRILLATION",NA,"HLT_0365",NA,"HLGT_0012",NA,"CARDIAC DISORDERS",NA,"CARDIAC DISORDERS",10007541,"Mild Adverse Event","No","Possibly Related",NA,"No","No","No","No","No","No","No","02/22/2013","02/22/2013","02/22/2013"
"CDISCPILOT01","708-1213","AE","Adverse Events","Atrial Fibrillation","Recovered/Resolved","ATRIAL FIBRILLATION",10003658,"ATRIAL FIBRILLATION",NA,"HLT_0365",NA,"HLGT_0012",NA,"CARDIAC DISORDERS",NA,"CARDIAC DISORDERS",10007541,"Mild Adverse Event","No","Possibly Related",NA,"No","No","No","No","No","No","No","02/26/2013","02/22/2013","02/22/2013"
"CDISCPILOT01","708-1216","AE","Adverse Events","Application Site Erythema","Not Recovered/not Resolved","APPLICATION SITE REDNESS",10003058,"APPLICATION SITE ERYTHEMA",NA,"HLT_0617",NA,"HLGT_0152",NA,"GENERAL DISORDERS AND ADMINISTRATION SITE CONDITIONS",NA,"GENERAL DISORDERS AND ADMINISTRATION SITE CONDITIONS",10018065,"Mild Adverse Event","No","Probably Related",NA,"No","No","No","No","No","No","No","11/08/2012","11/06/2012","12/13/2012"
"CDISCPILOT01","708-1216","AE","Adverse Events","Application Site Erythema","Recovered/Resolved","APPLICATION SITE REDNESS",10003058,"APPLICATION SITE ERYTHEMA",NA,"HLT_0617",NA,"HLGT_0152",NA,"GENERAL DISORDERS AND ADMINISTRATION SITE CONDITIONS",NA,"GENERAL DISORDERS AND ADMINISTRATION SITE CONDITIONS",10018065,"Mild Adverse Event","No","Probably Related",NA,"No","No","No","No","No","No","No","01/09/2013","11/06/2012","12/13/2012"
"CDISCPILOT01","708-1216","AE","Adverse Events","Application Site Pruritus","Not Recovered/not Resolved","APPLICATION SITE ITCHING",10003047,"APPLICATION SITE PRURITUS",NA,"HLT_0317",NA,"HLGT_0338",NA,"GENERAL DISORDERS AND ADMINISTRATION SITE CONDITIONS",NA,"GENERAL DISORDERS AND ADMINISTRATION SITE CONDITIONS",10018065,"Mild Adverse Event","No","Probably Related",NA,"No","No","No","No","No","No","No","11/08/2012","11/06/2012",NA
"CDISCPILOT01","708-1216","AE","Adverse Events","Application Site Swelling","Not Recovered/not Resolved","APPLICATION SITE SWELLING",10053424,"APPLICATION SITE SWELLING",NA,"HLT_0105",NA,"HLGT_0236",NA,"GENERAL DISORDERS AND ADMINISTRATION SITE CONDITIONS",NA,"GENERAL DISORDERS AND ADMINISTRATION SITE CONDITIONS",10018065,"Mild Adverse Event","No","Probably Related",NA,"No","No","No","No","No","No","No","11/22/2012","11/22/2012",NA
"CDISCPILOT01","708-1253","AE","Adverse Events","Conjunctivitis","Not Recovered/not Resolved","CONJUNCTIVITIS",10010741,"CONJUNCTIVITIS",NA,"HLT_0584",NA,"HLGT_0335",NA,"EYE DISORDERS",NA,"EYE DISORDERS",10015919,"Mild Adverse Event","No","Not Related",NA,"No","No","No","No","No","No","No","05/07/2013","05/06/2013","05/16/2013"
"CDISCPILOT01","708-1253","AE","Adverse Events","Conjunctivitis","Recovered/Resolved","CONJUNCTIVITIS",10010741,"CONJUNCTIVITIS",NA,"HLT_0584",NA,"HLGT_0335",NA,"EYE DISORDERS",NA,"EYE DISORDERS",10015919,"Mild Adverse Event","No","Not Related",NA,"No","No","No","No","No","No","No","05/21/2013","05/06/2013","05/16/2013"
"CDISCPILOT01","708-1253","AE","Adverse Events","Cough","Not Recovered/not Resolved","COUGH",10011224,"COUGH",NA,"HLT_0701",NA,"HLGT_0280",NA,"RESPIRATORY, THORACIC AND MEDIASTINAL DISORDERS",NA,"RESPIRATORY, THORACIC AND MEDIASTINAL DISORDERS",10038738,"Mild Adverse Event","No","Not Related",NA,"No","No","No","No","No","No","No","05/07/2013","05/06/2013","05/16/2013"
"CDISCPILOT01","708-1253","AE","Adverse Events","Cough","Recovered/Resolved","COUGH",10011224,"COUGH",NA,"HLT_0701",NA,"HLGT_0280",NA,"RESPIRATORY, THORACIC AND MEDIASTINAL DISORDERS",NA,"RESPIRATORY, THORACIC AND MEDIASTINAL DISORDERS",10038738,"Mild Adverse Event","No","Not Related",NA,"No","No","No","No","No","No","No","05/21/2013","05/06/2013","05/16/2013"
"CDISCPILOT01","708-1253","AE","Adverse Events","Dizziness","Not Recovered/not Resolved","DIZZINESS",10013573,"DIZZINESS",NA,"HLT_0619",NA,"HLGT_0751",NA,"NERVOUS SYSTEM DISORDERS",NA,"NERVOUS SYSTEM DISORDERS",10029205,"Mild Adverse Event","No","Possibly Related",NA,"No","No","No","No","No","No","No","06/07/2013","06/07/2013","06/07/2013"
"CDISCPILOT01","708-1253","AE","Adverse Events","Dizziness","Recovered/Resolved","DIZZINESS",10013573,"DIZZINESS",NA,"HLT_0619",NA,"HLGT_0751",NA,"NERVOUS SYSTEM DISORDERS",NA,"NERVOUS SYSTEM DISORDERS",10029205,"Mild Adverse Event","No","Possibly Related",NA,"No","No","No","No","No","No","No","06/09/2013","06/07/2013","06/07/2013"
"CDISCPILOT01","708-1253","AE","Adverse Events","Heart Rate Increased","Not Recovered/not Resolved","HEART RATE INCREASED",10019303,"HEART RATE INCREASED",NA,"HLT_0646",NA,"HLGT_0673",NA,"INVESTIGATIONS",NA,"INVESTIGATIONS",10022891,"Mild Adverse Event","No","Possibly Related",NA,"No","No","No","No","No","No","No","05/07/2013","05/07/2013","05/10/2013"
"CDISCPILOT01","708-1253","AE","Adverse Events","Heart Rate Increased","Recovered/Resolved","HEART RATE INCREASED",10019303,"HEART RATE INCREASED",NA,"HLT_0646",NA,"HLGT_0673",NA,"INVESTIGATIONS",NA,"INVESTIGATIONS",10022891,"Mild Adverse Event","No","Possibly Related",NA,"No","No","No","No","No","No","No","05/21/2013","05/07/2013","05/10/2013"
"CDISCPILOT01","708-1272","AE","Adverse Events","Application Site Dermatitis","Recovered/Resolved","APPLICATION SITE RASH",10003054,"APPLICATION SITE DERMATITIS",NA,"HLT_0343",NA,"HLGT_0241",NA,"GENERAL DISORDERS AND ADMINISTRATION SITE CONDITIONS",NA,"GENERAL DISORDERS AND ADMINISTRATION SITE CONDITIONS",10018065,"Mild Adverse Event","No","Probably Related",NA,"No","No","No","No","No","No","No","03/07/2013","02/27/2013","02/27/2013"
"CDISCPILOT01","708-1272","AE","Adverse Events","Cough","Not Recovered/not Resolved","COUGH",10011224,"COUGH",NA,"HLT_0701",NA,"HLGT_0280",NA,"RESPIRATORY, THORACIC AND MEDIASTINAL DISORDERS",NA,"RESPIRATORY, THORACIC AND MEDIASTINAL DISORDERS",10038738,"Mild Adverse Event","No","Not Related",NA,"No","No","No","No","No","No","No","03/07/2013","03/01/2013","03/07/2013"
"CDISCPILOT01","708-1272","AE","Adverse Events","Cough","Recovered/Resolved","COUGH",10011224,"COUGH",NA,"HLT_0701",NA,"HLGT_0280",NA,"RESPIRATORY, THORACIC AND MEDIASTINAL DISORDERS",NA,"RESPIRATORY, THORACIC AND MEDIASTINAL DISORDERS",10038738,"Mild Adverse Event","No","Not Related",NA,"No","No","No","No","No","No","No","03/09/2013","03/01/2013","03/07/2013"
"CDISCPILOT01","708-1272","AE","Adverse Events","Diarrhoea","Recovered/Resolved","DIARRHEA",10012727,"DIARRHOEA",NA,"HLT_0148",NA,"HLGT_0588",NA,"GASTROINTESTINAL DISORDERS",NA,"GASTROINTESTINAL DISORDERS",10017947,"Mild Adverse Event","No","Not Related",NA,"No","No","No","No","No","No","No","02/21/2013","02/11/2013","02/11/2013"
"CDISCPILOT01","708-1272","AE","Adverse Events","Headache","Not Recovered/not Resolved","HEADACHE",10019211,"HEADACHE",NA,"HLT_0064",NA,"HLGT_0344",NA,"NERVOUS SYSTEM DISORDERS",NA,"NERVOUS SYSTEM DISORDERS",10029205,"Mild Adverse Event","No","Not Related",NA,"No","No","No","No","No","No","No","03/07/2013","03/07/2013","03/07/2013"
"CDISCPILOT01","708-1272","AE","Adverse Events","Headache","Recovered/Resolved","HEADACHE",10019211,"HEADACHE",NA,"HLT_0064",NA,"HLGT_0344",NA,"NERVOUS SYSTEM DISORDERS",NA,"NERVOUS SYSTEM DISORDERS",10029205,"Mild Adverse Event","No","Not Related",NA,"No","No","No","No","No","No","No","03/09/2013","03/07/2013","03/07/2013"
"CDISCPILOT01","708-1272","AE","Adverse Events","Hot Flush","Recovered/Resolved","HOT FLASHES",10020407,"HOT FLUSH",NA,"HLT_0737",NA,"HLGT_0773",NA,"VASCULAR DISORDERS",NA,"VASCULAR DISORDERS",10047065,"Mild Adverse Event","No","Not Related",NA,"No","No","No","No","No","No","No","03/20/2013","03/19/2013","03/19/2013"
"CDISCPILOT01","708-1272","AE","Adverse Events","Muscle Spasms","Recovered/Resolved","LEG CRAMPS",10024125,"MUSCLE SPASMS",NA,"HLT_0078",NA,"HLGT_0750",NA,"MUSCULOSKELETAL AND CONNECTIVE TISSUE DISORDERS",NA,"MUSCULOSKELETAL AND CONNECTIVE TISSUE DISORDERS",10028395,"Severe Adverse Event","No","Not Related",NA,"No","No","No","No","No","No","No","02/21/2013","02/18/2013","02/18/2013"
"CDISCPILOT01","708-1272","AE","Adverse Events","Nasopharyngitis","Not Recovered/not Resolved","COLD",10009851,"NASOPHARYNGITIS",NA,"HLT_0036",NA,"HLGT_0709",NA,"INFECTIONS AND INFESTATIONS",NA,"INFECTIONS AND INFESTATIONS",10021881,"Mild Adverse Event","No","Not Related",NA,"No","No","No","No","No","No","No","03/07/2013","03/01/2013","03/07/2013"
"CDISCPILOT01","708-1272","AE","Adverse Events","Nasopharyngitis","Recovered/Resolved","COLD",10009851,"NASOPHARYNGITIS",NA,"HLT_0036",NA,"HLGT_0709",NA,"INFECTIONS AND INFESTATIONS",NA,"INFECTIONS AND INFESTATIONS",10021881,"Mild Adverse Event","No","Not Related",NA,"No","No","No","No","No","No","No","03/09/2013","03/01/2013","03/07/2013"
"CDISCPILOT01","708-1272","AE","Adverse Events","Ventricular Extrasystoles","Not Recovered/not Resolved","VENTRICULAR BIGEMINY",10050779,"VENTRICULAR EXTRASYSTOLES",NA,"HLT_0050",NA,"HLGT_0594",NA,"CARDIAC DISORDERS",NA,"CARDIAC DISORDERS",10007541,"Mild Adverse Event","No","Remote",NA,"No","No","No","No","No","No","No","02/21/2013","02/21/2013","03/20/2013"
"CDISCPILOT01","708-1272","AE","Adverse Events","Ventricular Extrasystoles","Recovered/Resolved","VENTRICULAR BIGEMINY",10050779,"VENTRICULAR EXTRASYSTOLES",NA,"HLT_0050",NA,"HLGT_0594",NA,"CARDIAC DISORDERS",NA,"CARDIAC DISORDERS",10007541,"Mild Adverse Event","No","Remote",NA,"No","No","No","No","No","No","No","04/04/2013","02/21/2013","03/20/2013"
"CDISCPILOT01","708-1286","AE","Adverse Events","Abdominal Pain","Recovered/Resolved","ABDOMINAL PAIN",10000081,"ABDOMINAL PAIN",NA,"HLT_0217",NA,"HLGT_0419",NA,"GASTROINTESTINAL DISORDERS",NA,"GASTROINTESTINAL DISORDERS",10017947,"Mild Adverse Event","No","Remote",NA,"No","No","No","No","No","No","No","02/23/2014","02/18/2014","02/18/2014"
"CDISCPILOT01","708-1286","AE","Adverse Events","Application Site Pruritus","Not Recovered/not Resolved","APPLICATION SITE ITCHING",10003047,"APPLICATION SITE PRURITUS",NA,"HLT_0317",NA,"HLGT_0338",NA,"GENERAL DISORDERS AND ADMINISTRATION SITE CONDITIONS",NA,"GENERAL DISORDERS AND ADMINISTRATION SITE CONDITIONS",10018065,"Mild Adverse Event","No","Probably Related",NA,"No","No","No","No","No","No","No","09/23/2013","09/12/2013",NA
"CDISCPILOT01","708-1286","AE","Adverse Events","Constipation","Recovered/Resolved","CONSTIPATION",10010774,"CONSTIPATION",NA,"HLT_0402",NA,"HLGT_0635",NA,"GASTROINTESTINAL DISORDERS",NA,"GASTROINTESTINAL DISORDERS",10017947,"Mild Adverse Event","No","Remote",NA,"No","No","No","No","No","No","No","02/23/2014","02/18/2014","02/18/2014"
"CDISCPILOT01","708-1286","AE","Adverse Events","Myocardial Infarction","Not Recovered/not Resolved","INFERIOR MYOCARDIAL INFARCTION",10057546,"MYOCARDIAL INFARCTION",NA,"HLT_0649",NA,"HLGT_0688",NA,"CARDIAC DISORDERS",NA,"CARDIAC DISORDERS",10007541,"Mild Adverse Event","No","Remote",NA,"No","No","No","No","No","No","No","09/23/2013","09/23/2013",NA
"CDISCPILOT01","708-1296","AE","Adverse Events","Application Site Pruritus","Not Recovered/not Resolved","APPLICATION SITE ITCHING",10003047,"APPLICATION SITE PRURITUS",NA,"HLT_0317",NA,"HLGT_0338",NA,"GENERAL DISORDERS AND ADMINISTRATION SITE CONDITIONS",NA,"GENERAL DISORDERS AND ADMINISTRATION SITE CONDITIONS",10018065,"Mild Adverse Event","No","Probably Related",NA,"No","No","No","No","No","No","No","09/04/2013","09/04/2013","09/18/2013"
"CDISCPILOT01","708-1296","AE","Adverse Events","Application Site Pruritus","Recovered/Resolved","APPLICATION SITE ITCHING",10003047,"APPLICATION SITE PRURITUS",NA,"HLT_0317",NA,"HLGT_0338",NA,"GENERAL DISORDERS AND ADMINISTRATION SITE CONDITIONS",NA,"GENERAL DISORDERS AND ADMINISTRATION SITE CONDITIONS",10018065,"Mild Adverse Event","No","Probably Related",NA,"No","No","No","No","No","No","No","10/02/2013","09/04/2013","09/18/2013"
"CDISCPILOT01","708-1296","AE","Adverse Events","Application Site Vesicles","Not Recovered/not Resolved","APPLICATION SITE BLISTER",10053414,"APPLICATION SITE VESICLES",NA,"HLT_0180",NA,"HLGT_0576",NA,"GENERAL DISORDERS AND ADMINISTRATION SITE CONDITIONS",NA,"GENERAL DISORDERS AND ADMINISTRATION SITE CONDITIONS",10018065,"Mild Adverse Event","No","Probably Related",NA,"No","No","No","No","No","No","No","10/30/2013","10/04/2013","10/30/2013"
"CDISCPILOT01","708-1296","AE","Adverse Events","Application Site Vesicles","Recovered/Resolved","APPLICATION SITE BLISTER",10053414,"APPLICATION SITE VESICLES",NA,"HLT_0180",NA,"HLGT_0576",NA,"GENERAL DISORDERS AND ADMINISTRATION SITE CONDITIONS",NA,"GENERAL DISORDERS AND ADMINISTRATION SITE CONDITIONS",10018065,"Mild Adverse Event","No","Probably Related",NA,"No","No","No","No","No","No","No","11/27/2013","10/04/2013","10/30/2013"
